|6.6.6
Archiving\03_Data\DfracLP/QFM_m4.75/YM20/YM20_6.tab                     
           1
T(K)    
  0.000000000000000E+000
  0.000000000000000E+000
           0
           3
T(K)           P(bar)         rho,kg/m3     
  2000.00        500.000        7293.59     
  1997.49        500.000        7294.22     
  1994.99        500.000        7294.88     
  1992.48        500.000        7295.55     
  1989.97        500.000        7296.23     
  1987.47        500.000        7297.40     
  1984.96        500.000        7297.65     
  1982.46        500.000        7298.37     
  1979.95        500.000        7299.11     
  1977.44        500.000        7299.87     
  1974.94        500.000        7300.63     
  1972.43        500.000        7301.40     
  1969.92        500.000        7302.19     
  1967.42        500.000        7302.98     
  1964.91        500.000        7303.78     
  1962.41        500.000        7304.59     
  1959.90        500.000        7305.41     
  1957.39        500.000        7306.24     
  1954.89        500.000        7307.07     
  1952.38        500.000        7307.91     
  1949.87        500.000        7308.76     
  1947.37        500.000        7309.61     
  1944.86        500.000        7310.47     
  1942.36        500.000        7311.34     
  1939.85        500.000        7312.21     
  1937.34        500.000        7313.08     
  1934.84        500.000        7313.96     
  1932.33        500.000        7314.85     
  1929.82        500.000        7315.74     
  1927.32        500.000        7316.63     
  1924.81        500.000        7317.53     
  1922.31        500.000        7318.43     
  1919.80        500.000        7319.33     
  1917.29        500.000        7320.24     
  1914.79        500.000        7321.15     
  1912.28        500.000        7322.07     
  1909.77        500.000        7322.98     
  1907.27        500.000        6376.64     
  1904.76        500.000        3157.22     
  1902.26        500.000        3132.83     
  1899.75        500.000        3133.28     
  1897.24        500.000        3134.89     
  1894.74        500.000        3146.44     
  1892.23        500.000        3137.80     
  1889.72        500.000        3164.38     
  1887.22        500.000        3213.15     
  1884.71        500.000        3142.00     
  1882.21        500.000        3143.69     
  1879.70        500.000        3149.79     
  1877.19        500.000        3146.22     
  1874.69        500.000        3148.05     
  1872.18        500.000        3148.94     
  1869.67        500.000        3150.45     
  1867.17        500.000        3152.20     
  1864.66        500.000        3178.68     
  1862.16        500.000        3181.21     
  1859.65        500.000        3179.22     
  1857.14        500.000        3182.01     
  1854.64        500.000        3183.39     
  1852.13        500.000        3186.05     
  1849.62        500.000        3186.29     
  1847.12        500.000        3187.94     
  1844.61        500.000        3189.41     
  1842.11        500.000        3190.37     
  1839.60        500.000        3192.16     
  1837.09        500.000        3193.69     
  1834.59        500.000        3195.13     
  1832.08        500.000        3196.57     
  1829.57        500.000        3197.94     
  1827.07        500.000        3199.98     
  1824.56        500.000        3201.05     
  1822.06        500.000        3202.55     
  1819.55        500.000        3204.22     
  1817.04        500.000        3205.72     
  1814.54        500.000        3207.42     
  1812.03        500.000        3207.75     
  1809.52        500.000        3209.22     
  1807.02        500.000        3211.38     
  1804.51        500.000        3212.50     
  1802.01        500.000        3214.68     
  1799.50        500.000        3215.77     
  1796.99        500.000        3217.66     
  1794.49        500.000        3218.37     
  1791.98        500.000        3220.00     
  1789.47        500.000        3220.00     
  1786.97        500.000        3222.41     
  1784.46        500.000        3224.62     
  1781.95        500.000        3224.79     
  1779.45        500.000        3227.09     
  1776.94        500.000        3228.59     
  1774.44        500.000        3230.44     
  1771.93        500.000        3230.77     
  1769.42        500.000        3232.19     
  1766.92        500.000        3233.93     
  1764.41        500.000        3235.80     
  1761.90        500.000        3234.46     
  1759.40        500.000        3238.31     
  1756.89        500.000        3240.80     
  1754.39        500.000        3239.98     
  1751.88        500.000        3242.63     
  1749.37        500.000        3243.93     
  1746.87        500.000        3245.67     
  1744.36        500.000        3248.01     
  1741.85        500.000        3248.53     
  1739.35        500.000        3249.47     
  1736.84        500.000        3250.71     
  1734.34        500.000        3252.67     
  1731.83        500.000        3253.94     
  1729.32        500.000        3253.01     
  1726.82        500.000        3278.23     
  1724.31        500.000        3259.20     
  1721.80        500.000        3258.71     
  1719.30        500.000        3260.20     
  1716.79        500.000        3261.93     
  1714.29        500.000        3263.64     
  1711.78        500.000        3265.23     
  1709.27        500.000        3266.34     
  1706.77        500.000        3267.37     
  1704.26        500.000        3268.83     
  1701.75        500.000        3270.42     
  1699.25        500.000        3271.56     
  1696.74        500.000        3272.73     
  1694.24        500.000        3274.32     
  1691.73        500.000        3275.20     
  1689.22        500.000        3277.01     
  1686.72        500.000        3278.21     
  1684.21        500.000        3278.91     
  1681.70        500.000        3281.12     
  1679.20        500.000        3281.67     
  1676.69        500.000        3284.51     
  1674.19        500.000        3284.03     
  1671.68        500.000        3285.19     
  1669.17        500.000        3286.52     
  1666.67        500.000        3287.25     
  1664.16        500.000        3289.72     
  1661.65        500.000        3290.73     
  1659.15        500.000        3291.71     
  1656.64        500.000        3292.53     
  1654.14        500.000        3293.69     
  1651.63        500.000        3295.91     
  1649.12        500.000        3296.89     
  1646.62        500.000        3298.86     
  1644.11        500.000        3297.75     
  1641.60        500.000        3299.74     
  1639.10        500.000        3300.85     
  1636.59        500.000        3303.37     
  1634.09        500.000        3302.57     
  1631.58        500.000        3304.80     
  1629.07        500.000        3307.20     
  1626.57        500.000        3249.07     
  1624.06        500.000        3229.35     
  1621.55        500.000        3216.10     
  1619.05        500.000        3217.12     
  1616.54        500.000        3217.78     
  1614.04        500.000        3217.62     
  1611.53        500.000        3219.26     
  1609.02        500.000        3219.59     
  1606.52        500.000        3220.48     
  1604.01        500.000        3221.15     
  1601.50        500.000        3222.33     
  1599.00        500.000        3222.36     
  1596.49        500.000        3223.07     
  1593.98        500.000        3223.75     
  1591.48        500.000        3224.44     
  1588.97        500.000        3225.06     
  1586.47        500.000        3225.59     
  1583.96        500.000        3225.68     
  1581.45        500.000        3226.51     
  1578.95        500.000        3227.33     
  1576.44        500.000        3227.89     
  1573.93        500.000        3228.54     
  1571.43        500.000        3245.98     
  1568.92        500.000        3228.17     
  1566.42        500.000        3228.38     
  1563.91        500.000        3229.59     
  1561.40        500.000        3230.27     
  1558.90        500.000        3231.00     
  1556.39        500.000        3231.97     
  1553.88        500.000        3232.69     
  1551.38        500.000        3234.10     
  1548.87        500.000        3233.75     
  1546.37        500.000        3235.32     
  1543.86        500.000        3235.68     
  1541.35        500.000        3236.62     
  1538.85        500.000        3237.25     
  1536.34        500.000        3238.43     
  1533.83        500.000        3239.12     
  1531.33        500.000        3240.27     
  1528.82        500.000        3240.50     
  1526.32        500.000        3241.07     
  1523.81        500.000        3242.08     
  1521.30        500.000        3243.14     
  1518.80        500.000        3243.82     
  1516.29        500.000        3244.61     
  1513.78        500.000        3245.83     
  1511.28        500.000        3246.56     
  1508.77        500.000        3247.43     
  1506.27        500.000        3247.69     
  1503.76        500.000        3237.59     
  1501.25        500.000        3239.03     
  1498.75        500.000        3240.71     
  1496.24        500.000        3242.25     
  1493.73        500.000        3243.23     
  1491.23        500.000        3244.60     
  1488.72        500.000        3245.86     
  1486.22        500.000        3247.08     
  1483.71        500.000        3248.56     
  1481.20        500.000        3250.55     
  1478.70        500.000        3251.33     
  1476.19        500.000        3252.71     
  1473.68        500.000        3254.13     
  1471.18        500.000        3255.07     
  1468.67        500.000        3242.29     
  1466.17        500.000        3244.31     
  1463.66        500.000        3246.06     
  1461.15        500.000        3247.80     
  1458.65        500.000        3249.18     
  1456.14        500.000        3251.85     
  1453.63        500.000        3253.53     
  1451.13        500.000        3255.53     
  1448.62        500.000        3178.37     
  1446.12        500.000        3084.19     
  1443.61        500.000        3086.66     
  1441.10        500.000        3089.44     
  1438.60        500.000        3092.14     
  1436.09        500.000        3094.84     
  1433.58        500.000        3097.34     
  1431.08        500.000        3100.18     
  1428.57        500.000        3102.41     
  1426.07        500.000        3105.17     
  1423.56        500.000        3107.82     
  1421.05        500.000        3110.27     
  1418.55        500.000        3112.82     
  1416.04        500.000        3115.27     
  1413.53        500.000        3118.01     
  1411.03        500.000        3120.56     
  1408.52        500.000        3123.00     
  1406.02        500.000        3125.70     
  1403.51        500.000        3128.13     
  1401.00        500.000        3172.21     
  1398.50        500.000        3196.49     
  1395.99        500.000        3196.92     
  1393.48        500.000        3197.40     
  1390.98        500.000        3197.84     
  1388.47        500.000        3198.16     
  1385.96        500.000        3198.69     
  1383.46        500.000        3199.05     
  1380.95        500.000        3199.46     
  1378.45        500.000        3199.83     
  1375.94        500.000        3200.22     
  1373.43        500.000        3200.63     
  1370.93        500.000        3200.89     
  1368.42        500.000        3201.27     
  1365.91        500.000        3201.57     
  1363.41        500.000        3201.86     
  1360.90        500.000        3202.13     
  1358.40        500.000        3202.36     
  1355.89        500.000        3202.61     
  1353.38        500.000        3202.86     
  1350.88        500.000        3202.99     
  1348.37        500.000        3203.11     
  1345.86        500.000        3203.25     
  1343.36        500.000        3203.34     
  1340.85        500.000        3203.36     
  1338.35        500.000        3203.36     
  1335.84        500.000        3203.27     
  1333.33        500.000        3203.22     
  1330.83        500.000        3203.21     
  1328.32        500.000        3202.94     
  1325.81        500.000        3216.91     
  1323.31        500.000        3211.46     
  1320.80        500.000        3208.79     
  1318.30        500.000        3247.11     
  1315.79        500.000        3201.55     
  1313.28        500.000        3194.29     
  1310.78        500.000        3196.80     
  1308.27        500.000        3198.81     
  1305.76        500.000        3201.45     
  1303.26        500.000        3203.71     
  1300.75        500.000        3206.20     
  1298.25        500.000        3208.38     
  1295.74        500.000        3210.68     
  1293.23        500.000        3213.03     
  1290.73        500.000        3215.29     
  1288.22        500.000        3217.26     
  1285.71        500.000        3219.57     
  1283.21        500.000        3221.90     
  1280.70        500.000        3224.05     
  1278.20        500.000        2788.16     
  1275.69        500.000        2782.97     
  1273.18        500.000        2785.45     
  1270.68        500.000        2787.75     
  1268.17        500.000        2789.87     
  1265.66        500.000        2791.87     
  1263.16        500.000        2793.52     
  1260.65        500.000        2795.31     
  1258.15        500.000        2797.12     
  1255.64        500.000        2798.39     
  1253.13        500.000        2800.18     
  1250.63        500.000        2801.60     
  1248.12        500.000        2802.86     
  1245.61        500.000        2804.38     
  1243.11        500.000        2805.68     
  1240.60        500.000        2807.04     
  1238.10        500.000        2808.39     
  1235.59        500.000        2810.72     
  1233.08        500.000        2818.59     
  1230.58        500.000        2820.70     
  1228.07        500.000        2820.51     
  1225.56        500.000        2818.93     
  1223.06        500.000        2819.47     
  1220.55        500.000        2818.67     
  1218.05        500.000        2818.65     
  1215.54        500.000        2818.60     
  1213.03        500.000        2669.11     
  1210.53        500.000        2665.01     
  1208.02        500.000        2667.46     
  1205.51        500.000        2665.80     
  1203.01        500.000        2665.09     
  1200.50        500.000        2675.11     
  1197.99        500.000        2665.48     
  1195.49        500.000        2661.55     
  1192.98        500.000        2648.19     
  1190.48        500.000        2629.97     
  1187.97        500.000        2630.12     
  1185.46        500.000        2630.27     
  1182.96        500.000        2630.36     
  1180.45        500.000        2630.50     
  1177.94        500.000        2630.54     
  1175.44        500.000        2630.65     
  1172.93        500.000        2630.76     
  1170.43        500.000        2630.88     
  1167.92        500.000        2630.99     
  1165.41        500.000        2631.11     
  1162.91        500.000        2631.23     
  1160.40        500.000        2631.34     
  1157.89        500.000        2631.46     
  1155.39        500.000        2631.61     
  1152.88        500.000        2631.68     
  1150.38        500.000        2631.79     
  1147.87        500.000        2631.87     
  1145.36        500.000        2631.99     
  1142.86        500.000        2632.10     
  1140.35        500.000        2632.20     
  1137.84        500.000        2632.28     
  1135.34        500.000        2632.43     
  1132.83        500.000        2632.50     
  1130.33        500.000        2632.61     
  1127.82        500.000        2632.72     
  1125.31        500.000        2632.83     
  1122.81        500.000        2632.94     
  1120.30        500.000        2633.15     
  1117.79        500.000        2633.23     
  1115.29        500.000        2633.36     
  1112.78        500.000        2633.47     
  1110.28        500.000        2633.57     
  1107.77        500.000        2633.68     
  1105.26        500.000        2633.80     
  1102.76        500.000        2633.89     
  1100.25        500.000        2634.00     
  1097.74        500.000        2634.12     
  1095.24        500.000        2634.24     
  1092.73        500.000        2634.34     
  1090.23        500.000        2634.44     
  1087.72        500.000        2634.54     
  1085.21        500.000        2634.67     
  1082.71        500.000        2634.78     
  1080.20        500.000        2634.80     
  1077.69        500.000        2634.91     
  1075.19        500.000        2635.02     
  1072.68        500.000        2635.13     
  1070.18        500.000        2635.11     
  1067.67        500.000        2634.90     
  1065.16        500.000        2635.46     
  1062.66        500.000        2635.62     
  1060.15        500.000        2635.51     
  1057.64        500.000        2635.85     
  1055.14        500.000        2635.95     
  1052.63        500.000        2636.05     
  1050.13        500.000        2636.16     
  1047.62        500.000        2636.27     
  1045.11        500.000        2636.38     
  1042.61        500.000        2636.48     
  1040.10        500.000        2636.58     
  1037.59        500.000        2635.10     
  1035.09        500.000        2635.30     
  1032.58        500.000        2635.07     
  1030.08        500.000        2635.21     
  1027.57        500.000        2635.09     
  1025.06        500.000        2635.11     
  1022.56        500.000        2635.24     
  1020.05        500.000        2635.17     
  1017.54        500.000        2635.11     
  1015.04        500.000        2635.23     
  1012.53        500.000        2635.25     
  1010.03        500.000        2635.24     
  1007.52        500.000        2635.39     
  1005.01        500.000        2635.46     
  1002.51        500.000        2635.52     
  1000.00        500.000        2635.59     
