|6.6.6
Archiving\03_Data\Deq/QFM_m5/WD94/WD94_6.tab                              
           1
T(K)    
  0.000000000000000E+000
  0.000000000000000E+000
           0
           3
T(K)           P(bar)         rho,kg/m3     
  2000.00        2500.00        7283.63     
  1996.79        2500.00        7285.02     
  1993.59        2500.00        7286.40     
  1990.38        2500.00        7287.78     
  1987.18        2500.00        7289.16     
  1983.97        2500.00        7290.54     
  1980.77        2500.00        7291.92     
  1977.56        2500.00        7293.30     
  1974.36        2500.00        7294.68     
  1971.15        2500.00        7296.05     
  1967.95        2500.00        7297.42     
  1964.74        2500.00        7298.80     
  1961.54        2500.00        7300.17     
  1958.33        2500.00        7301.54     
  1955.13        2500.00        7302.91     
  1951.92        2500.00        7304.28     
  1948.72        2500.00        7305.64     
  1945.51        2500.00        7307.01     
  1942.31        2500.00        7308.37     
  1939.10        2500.00        7309.74     
  1935.90        2500.00        7311.10     
  1932.69        2500.00        7312.46     
  1929.49        2500.00        7313.82     
  1926.28        2500.00        7315.18     
  1923.08        2500.00        7316.54     
  1919.87        2500.00        7317.89     
  1916.67        2500.00        7319.25     
  1913.46        2500.00        7320.60     
  1910.26        2500.00        7321.95     
  1907.05        2500.00        7323.31     
  1903.85        2500.00        7324.66     
  1900.64        2500.00        6502.15     
  1897.44        2500.00        6308.12     
  1894.23        2500.00        5909.60     
  1891.03        2500.00        5600.01     
  1887.82        2500.00        5352.59     
  1884.62        2500.00        5150.36     
  1881.41        2500.00        4981.99     
  1878.21        2500.00        4839.64     
  1875.00        2500.00        4717.73     
  1871.79        2500.00        4612.17     
  1868.59        2500.00        4525.17     
  1865.38        2500.00        4447.89     
  1862.18        2500.00        4378.79     
  1858.97        2500.00        4316.65     
  1855.77        2500.00        4260.47     
  1852.56        2500.00        4209.44     
  1849.36        2500.00        4162.88     
  1846.15        2500.00        4120.25     
  1842.95        2500.00        4081.99     
  1839.74        2500.00        4046.64     
  1836.54        2500.00        4014.09     
  1833.33        2500.00        3983.62     
  1830.13        2500.00        3955.50     
  1826.92        2500.00        3929.25     
  1823.72        2500.00        3904.70     
  1820.51        2500.00        3881.69     
  1817.31        2500.00        3860.04     
  1814.10        2500.00        3839.67     
  1810.90        2500.00        3820.47     
  1807.69        2500.00        3802.34     
  1804.49        2500.00        3785.19     
  1801.28        2500.00        3768.96     
  1798.08        2500.00        3753.57     
  1794.87        2500.00        3738.96     
  1791.67        2500.00        3724.59     
  1788.46        2500.00        3710.94     
  1785.26        2500.00        3697.94     
  1782.05        2500.00        3685.55     
  1778.85        2500.00        3673.74     
  1775.64        2500.00        3662.46     
  1772.44        2500.00        3651.68     
  1769.23        2500.00        3641.37     
  1766.03        2500.00        3631.04     
  1762.82        2500.00        3621.16     
  1759.62        2500.00        3611.69     
  1756.41        2500.00        3602.62     
  1753.21        2500.00        3593.92     
  1750.00        2500.00        3585.57     
  1746.79        2500.00        3577.54     
  1743.59        2500.00        3569.83     
  1740.38        2500.00        3561.97     
  1737.18        2500.00        3554.42     
  1733.97        2500.00        3547.16     
  1730.77        2500.00        3540.17     
  1727.56        2500.00        3533.44     
  1724.36        2500.00        3526.96     
  1721.15        2500.00        3520.71     
  1717.95        2500.00        3514.68     
  1714.74        2500.00        3508.56     
  1711.54        2500.00        3502.66     
  1708.33        2500.00        3496.96     
  1705.13        2500.00        3491.46     
  1701.92        2500.00        3486.15     
  1698.72        2500.00        3481.02     
  1695.51        2500.00        3476.06     
  1692.31        2500.00        3471.26     
  1689.10        2500.00        3470.75     
  1685.90        2500.00        3459.97     
  1682.69        2500.00        3449.88     
  1679.49        2500.00        3440.59     
  1676.28        2500.00        3433.34     
  1673.08        2500.00        3426.56     
  1669.87        2500.00        3420.21     
  1666.67        2500.00        3414.25     
  1663.46        2500.00        3410.14     
  1660.26        2500.00        3406.22     
  1657.05        2500.00        3402.47     
  1653.85        2500.00        3398.89     
  1650.64        2500.00        3395.47     
  1647.44        2500.00        3392.19     
  1644.23        2500.00        3389.05     
  1641.03        2500.00        3386.04     
  1637.82        2500.00        3384.05     
  1634.62        2500.00        3382.12     
  1631.41        2500.00        3380.25     
  1628.21        2500.00        3378.44     
  1625.00        2500.00        3376.68     
  1621.79        2500.00        3374.98     
  1618.59        2500.00        3373.33     
  1615.38        2500.00        3371.73     
  1612.18        2500.00        3370.60     
  1608.97        2500.00        3369.50     
  1605.77        2500.00        3368.42     
  1602.56        2500.00        3367.37     
  1599.36        2500.00        3366.35     
  1596.15        2500.00        3365.35     
  1592.95        2500.00        3364.38     
  1589.74        2500.00        3363.43     
  1586.54        2500.00        3362.71     
  1583.33        2500.00        3362.01     
  1580.13        2500.00        3361.32     
  1576.92        2500.00        3360.65     
  1573.72        2500.00        3359.99     
  1570.51        2500.00        3359.35     
  1567.31        2500.00        3358.72     
  1564.10        2500.00        3358.10     
  1560.90        2500.00        3357.60     
  1557.69        2500.00        3357.11     
  1554.49        2500.00        3356.62     
  1551.28        2500.00        3356.15     
  1548.08        2500.00        3355.69     
  1544.87        2500.00        3355.24     
  1541.67        2500.00        3354.79     
  1538.46        2500.00        3354.36     
  1535.26        2500.00        3353.97     
  1532.05        2500.00        3353.60     
  1528.85        2500.00        3353.23     
  1525.64        2500.00        3352.87     
  1522.44        2500.00        3352.51     
  1519.23        2500.00        3352.17     
  1516.03        2500.00        3351.83     
  1512.82        2500.00        3351.49     
  1509.62        2500.00        3351.17     
  1506.41        2500.00        3350.86     
  1503.21        2500.00        3350.55     
  1500.00        2500.00        3350.25     
  1496.79        2500.00        3349.95     
  1493.59        2500.00        3349.71     
  1490.38        2500.00        3349.46     
  1487.18        2500.00        3349.22     
  1483.97        2500.00        3349.00     
  1480.77        2500.00        3348.73     
  1477.56        2500.00        3348.50     
  1474.36        2500.00        3348.48     
  1471.15        2500.00        3348.92     
  1467.95        2500.00        3349.37     
  1464.74        2500.00        3349.81     
  1461.54        2500.00        3350.08     
  1458.33        2500.00        3350.52     
  1455.13        2500.00        3350.97     
  1451.92        2500.00        3351.41     
  1448.72        2500.00        3351.71     
  1445.51        2500.00        3352.15     
  1442.31        2500.00        3352.51     
  1439.10        2500.00        3352.92     
  1435.90        2500.00        3353.12     
  1432.69        2500.00        3353.56     
  1429.49        2500.00        3354.00     
  1426.28        2500.00        3354.44     
  1423.08        2500.00        3354.89     
  1419.87        2500.00        3355.33     
  1416.67        2500.00        3355.77     
  1413.46        2500.00        3356.21     
  1410.26        2500.00        3350.83     
  1407.05        2500.00        3351.27     
  1403.85        2500.00        3351.70     
  1400.64        2500.00        3352.14     
  1397.44        2500.00        3352.58     
  1394.23        2500.00        3353.01     
  1391.03        2500.00        3353.45     
  1387.82        2500.00        3353.89     
  1384.62        2500.00        3350.29     
  1381.41        2500.00        3350.72     
  1378.21        2500.00        3351.15     
  1375.00        2500.00        3351.58     
  1371.79        2500.00        3352.02     
  1368.59        2500.00        3352.45     
  1365.38        2500.00        3352.88     
  1362.18        2500.00        3353.31     
  1358.97        2500.00        3350.53     
  1355.77        2500.00        3350.96     
  1352.56        2500.00        3351.39     
  1349.36        2500.00        3351.82     
  1346.15        2500.00        3352.25     
  1342.95        2500.00        3352.67     
  1339.74        2500.00        3353.10     
  1336.54        2500.00        3353.53     
  1333.33        2500.00        3351.23     
  1330.13        2500.00        3351.66     
  1326.92        2500.00        3351.43     
  1323.72        2500.00        3351.59     
  1320.51        2500.00        3350.34     
  1317.31        2500.00        3350.76     
  1314.10        2500.00        3351.19     
  1310.90        2500.00        3351.61     
  1307.69        2500.00        3351.74     
  1304.49        2500.00        3352.17     
  1301.28        2500.00        3352.59     
  1298.08        2500.00        3353.01     
  1294.87        2500.00        3353.43     
  1291.67        2500.00        3353.86     
  1288.46        2500.00        3354.28     
  1285.26        2500.00        3354.70     
  1282.05        2500.00        3354.58     
  1278.85        2500.00        3355.00     
  1275.64        2500.00        3355.42     
  1272.44        2500.00        3355.84     
  1269.23        2500.00        3356.26     
  1266.03        2500.00        3356.68     
  1262.82        2500.00        3357.10     
  1259.62        2500.00        3357.52     
  1256.41        2500.00        3357.47     
  1253.21        2500.00        3357.89     
  1250.00        2500.00        3358.31     
  1246.79        2500.00        3358.73     
  1243.59        2500.00        3359.15     
  1240.38        2500.00        3359.56     
  1237.18        2500.00        3359.98     
  1233.97        2500.00        3360.40     
  1230.77        2500.00        3360.41     
  1227.56        2500.00        3360.83     
  1224.36        2500.00        3361.24     
  1221.15        2500.00        3361.66     
  1217.95        2500.00        3362.08     
  1214.74        2500.00        3362.49     
  1211.54        2500.00        3362.91     
  1208.33        2500.00        3363.32     
  1205.13        2500.00        3363.40     
  1201.92        2500.00        3363.81     
  1198.72        2500.00        3364.22     
  1195.51        2500.00        3364.64     
  1192.31        2500.00        3365.05     
  1189.10        2500.00        3365.46     
  1185.90        2500.00        3365.88     
  1182.69        2500.00        3366.29     
  1179.49        2500.00        3366.43     
  1176.28        2500.00        3366.84     
  1173.08        2500.00        3367.25     
  1169.87        2500.00        3367.66     
  1166.67        2500.00        3368.07     
  1163.46        2500.00        3368.48     
  1160.26        2500.00        3368.89     
  1157.05        2500.00        3369.30     
  1153.85        2500.00        3369.50     
  1150.64        2500.00        3369.91     
  1147.44        2500.00        3370.32     
  1144.23        2500.00        3370.73     
  1141.03        2500.00        3371.14     
  1137.82        2500.00        3371.55     
  1134.62        2500.00        3371.96     
  1131.41        2500.00        3372.37     
  1128.21        2500.00        3372.63     
  1125.00        2500.00        3373.04     
  1121.79        2500.00        3373.45     
  1118.59        2500.00        3373.86     
  1115.38        2500.00        3374.26     
  1112.18        2500.00        3374.67     
  1108.97        2500.00        3375.08     
  1105.77        2500.00        3375.48     
  1102.56        2500.00        3375.82     
  1099.36        2500.00        3376.22     
  1096.15        2500.00        3376.63     
  1092.95        2500.00        3377.03     
  1089.74        2500.00        3377.44     
  1086.54        2500.00        3377.84     
  1083.33        2500.00        3378.25     
  1080.13        2500.00        3378.65     
  1076.92        2500.00        3379.05     
  1073.72        2500.00        3379.46     
  1070.51        2500.00        3379.86     
  1067.31        2500.00        3380.26     
  1064.10        2500.00        3380.69     
  1060.90        2500.00        3381.12     
  1057.69        2500.00        3381.55     
  1054.49        2500.00        3381.95     
  1051.28        2500.00        3382.34     
  1048.08        2500.00        3382.75     
  1044.87        2500.00        3383.15     
  1041.67        2500.00        3383.55     
  1038.46        2500.00        3383.95     
  1035.26        2500.00        3384.35     
  1032.05        2500.00        3384.75     
  1028.85        2500.00        3385.15     
  1025.64        2500.00        3385.69     
  1022.44        2500.00        3386.09     
  1019.23        2500.00        3386.49     
  1016.03        2500.00        3386.89     
  1012.82        2500.00        3387.29     
  1009.62        2500.00        3387.69     
  1006.41        2500.00        3388.09     
  1003.21        2500.00        3388.49     
  1000.00        2500.00        3389.05     
