|6.6.6
Archiving\03_Data\eqfracLP/QFM_m3.75/KHA22/KHA22_6.tab                    
           1
T(K)    
  0.000000000000000E+000
  0.000000000000000E+000
           0
           3
T(K)           P(bar)         rho,kg/m3     
  1554.49        500.000        3244.66     
  1553.10        500.000        3215.88     
  1551.71        500.000        3216.19     
  1550.32        500.000        3227.45     
  1548.93        500.000        3216.35     
  1547.54        500.000        3235.34     
  1546.15        500.000        3217.23     
  1544.76        500.000        3217.53     
  1543.37        500.000        3217.92     
  1541.98        500.000        3219.14     
  1540.59        500.000        3218.39     
  1539.20        500.000        3222.27     
  1537.81        500.000        3218.29     
  1536.42        500.000        3219.13     
  1535.03        500.000        3219.37     
  1533.64        500.000        3220.30     
  1532.25        500.000        3220.14     
  1530.87        500.000        3220.40     
  1529.48        500.000        3229.00     
  1528.09        500.000        3221.13     
  1526.70        500.000        3221.15     
  1525.31        500.000        3221.81     
  1523.92        500.000        3221.84     
  1522.53        500.000        3219.59     
  1521.14        500.000        3220.95     
  1519.75        500.000        3267.66     
  1518.36        500.000        3222.81     
  1516.97        500.000        3227.51     
  1515.58        500.000        3223.53     
  1514.19        500.000        3223.78     
  1512.80        500.000        3223.90     
  1511.41        500.000        3224.29     
  1510.02        500.000        3225.26     
  1508.63        500.000        3226.27     
  1507.24        500.000        3225.16     
  1505.85        500.000        3225.08     
  1504.46        500.000        3225.82     
  1503.07        500.000        3225.15     
  1501.68        500.000        3226.70     
  1500.29        500.000        3235.36     
  1498.90        500.000        3227.31     
  1497.51        500.000        3227.52     
  1496.12        500.000        3227.70     
  1494.73        500.000        3228.23     
  1493.34        500.000        3229.36     
  1491.95        500.000        3228.36     
  1490.56        500.000        3229.01     
  1489.17        500.000        3229.35     
  1487.78        500.000        3230.21     
  1486.39        500.000        3229.65     
  1485.01        500.000        3229.78     
  1483.62        500.000        3230.68     
  1482.23        500.000        3231.68     
  1480.84        500.000        3230.62     
  1479.45        500.000        3232.29     
  1478.06        500.000        3231.83     
  1476.67        500.000        3232.17     
  1475.28        500.000        3224.08     
  1473.89        500.000        3218.27     
  1472.50        500.000        3216.66     
  1471.11        500.000        3217.58     
  1469.72        500.000        3218.80     
  1468.33        500.000        3219.27     
  1466.94        500.000        3219.56     
  1465.55        500.000        3220.68     
  1464.16        500.000        3220.99     
  1462.77        500.000        3223.79     
  1461.38        500.000        3222.93     
  1459.99        500.000        3222.84     
  1458.60        500.000        3223.50     
  1457.21        500.000        3224.15     
  1455.82        500.000        3224.28     
  1454.43        500.000        3226.25     
  1453.04        500.000        3219.67     
  1451.65        500.000        3218.88     
  1450.26        500.000        3219.83     
  1448.87        500.000        3221.13     
  1447.48        500.000        3221.20     
  1446.09        500.000        3222.68     
  1444.70        500.000        3222.91     
  1443.31        500.000        3223.71     
  1441.92        500.000        3224.55     
  1440.53        500.000        3225.49     
  1439.14        500.000        3225.94     
  1437.76        500.000        3226.89     
  1436.37        500.000        3228.45     
  1434.98        500.000        3228.91     
  1433.59        500.000        3229.37     
  1432.20        500.000        3230.09     
  1430.81        500.000        3231.01     
  1429.42        500.000        3233.76     
  1428.03        500.000        3232.58     
  1426.64        500.000        3236.57     
  1425.25        500.000        3233.81     
  1423.86        500.000        3234.69     
  1422.47        500.000        3235.62     
  1421.08        500.000        3094.20     
  1419.69        500.000        3068.45     
  1418.30        500.000        3069.47     
  1416.91        500.000        3070.26     
  1415.52        500.000        3070.98     
  1414.13        500.000        3071.77     
  1412.74        500.000        3072.65     
  1411.35        500.000        3073.41     
  1409.96        500.000        3074.16     
  1408.57        500.000        3074.95     
  1407.18        500.000        3075.50     
  1405.79        500.000        3076.56     
  1404.40        500.000        3077.09     
  1403.01        500.000        3078.13     
  1401.62        500.000        3078.95     
  1400.23        500.000        3079.69     
  1398.84        500.000        3080.42     
  1397.45        500.000        3081.36     
  1396.06        500.000        3082.23     
  1394.67        500.000        3082.80     
  1393.28        500.000        3083.74     
  1391.90        500.000        3084.60     
  1390.51        500.000        3085.25     
  1389.12        500.000        3086.04     
  1387.73        500.000        3086.75     
  1386.34        500.000        3087.79     
  1384.95        500.000        3088.49     
  1383.56        500.000        3089.18     
  1382.17        500.000        3090.22     
  1380.78        500.000        3090.84     
  1379.39        500.000        3091.52     
  1378.00        500.000        3092.59     
  1376.61        500.000        3093.03     
  1375.22        500.000        3094.10     
  1373.83        500.000        3094.89     
  1372.44        500.000        3095.46     
  1371.05        500.000        3096.78     
  1369.66        500.000        3097.29     
  1368.27        500.000        3098.23     
  1366.88        500.000        3098.96     
  1365.49        500.000        3099.73     
  1364.10        500.000        3100.25     
  1362.71        500.000        3101.32     
  1361.32        500.000        3102.08     
  1359.93        500.000        3102.85     
  1358.54        500.000        3103.68     
  1357.15        500.000        3104.50     
  1355.76        500.000        3105.40     
  1354.37        500.000        3106.32     
  1352.98        500.000        3106.81     
  1351.59        500.000        3107.64     
  1350.20        500.000        3108.66     
  1348.81        500.000        3109.37     
  1347.42        500.000        3110.23     
  1346.04        500.000        3110.83     
  1344.65        500.000        3111.88     
  1343.26        500.000        3112.64     
  1341.87        500.000        3113.52     
  1340.48        500.000        3114.13     
  1339.09        500.000        3115.27     
  1337.70        500.000        3115.88     
  1336.31        500.000        3116.61     
  1334.92        500.000        3117.57     
  1333.53        500.000        3118.46     
  1332.14        500.000        3119.17     
  1330.75        500.000        3120.11     
  1329.36        500.000        3120.75     
  1327.97        500.000        3121.53     
  1326.58        500.000        3122.56     
  1325.19        500.000        3123.19     
  1323.80        500.000        3124.03     
  1322.41        500.000        3124.74     
  1321.02        500.000        3125.74     
  1319.63        500.000        3126.40     
  1318.24        500.000        3127.34     
  1316.85        500.000        3128.12     
  1315.46        500.000        3129.04     
  1314.07        500.000        3129.69     
  1312.68        500.000        3130.64     
  1311.29        500.000        3131.15     
  1309.90        500.000        3132.23     
  1308.51        500.000        3133.12     
  1307.12        500.000        3133.77     
  1305.73        500.000        3134.54     
  1304.34        500.000        3135.25     
  1302.95        500.000        3136.07     
  1301.56        500.000        3137.28     
  1300.18        500.000        3137.91     
  1298.79        500.000        3138.55     
  1297.40        500.000        2739.55     
  1296.01        500.000        2737.28     
  1294.62        500.000        2739.52     
  1293.23        500.000        2741.48     
  1291.84        500.000        2743.31     
  1290.45        500.000        2745.04     
  1289.06        500.000        2746.45     
  1287.67        500.000        2747.88     
  1286.28        500.000        2749.15     
  1284.89        500.000        2750.28     
  1283.50        500.000        2751.38     
  1282.11        500.000        2752.27     
  1280.72        500.000        2753.19     
  1279.33        500.000        2753.86     
  1277.94        500.000        2754.77     
  1276.55        500.000        2755.46     
  1275.16        500.000        2756.02     
  1273.77        500.000        2756.78     
  1272.38        500.000        2757.34     
  1270.99        500.000        2757.76     
  1269.60        500.000        2758.02     
  1268.21        500.000        2758.70     
  1266.82        500.000        2759.21     
  1265.43        500.000        2759.31     
  1264.04        500.000        2759.76     
  1262.65        500.000        2760.05     
  1261.26        500.000        2760.46     
  1259.87        500.000        2760.64     
  1258.48        500.000        2760.69     
  1257.09        500.000        2761.03     
  1255.70        500.000        2761.22     
  1254.31        500.000        2761.45     
  1252.93        500.000        2761.77     
  1251.54        500.000        2761.66     
  1250.15        500.000        2762.12     
  1248.76        500.000        2762.19     
  1247.37        500.000        2762.41     
  1245.98        500.000        2762.95     
  1244.59        500.000        2762.57     
  1243.20        500.000        2762.69     
  1241.81        500.000        2762.68     
  1240.42        500.000        2763.30     
  1239.03        500.000        2763.02     
  1237.64        500.000        2763.14     
  1236.25        500.000        2762.96     
  1234.86        500.000        2763.51     
  1233.47        500.000        2763.47     
  1232.08        500.000        2763.18     
  1230.69        500.000        2763.69     
  1229.30        500.000        2763.92     
  1227.91        500.000        2728.62     
  1226.52        500.000        2719.90     
  1225.13        500.000        3002.92     
  1223.74        500.000        2546.93     
  1222.35        500.000        2802.19     
  1220.96        500.000        2400.09     
  1219.57        500.000        4659.93     
  1218.18        500.000        2400.17     
  1216.79        500.000        2717.03     
  1215.40        500.000        2717.11     
  1214.01        500.000        3609.28     
  1212.62        500.000        2598.40     
  1211.23        500.000        2536.29     
  1209.84        500.000        2663.79     
  1208.45        500.000        2626.22     
  1207.07        500.000        2696.78     
  1205.68        500.000        2684.38     
  1204.29        500.000        2802.75     
  1202.90        500.000        2542.37     
  1201.51        500.000        2829.00     
  1200.12        500.000        2642.69     
  1198.73        500.000        2627.67     
  1197.34        500.000        2627.60     
  1195.95        500.000        2624.94     
  1194.56        500.000        2563.51     
  1193.17        500.000        2617.08     
  1191.78        500.000        2622.36     
  1190.39        500.000        2622.55     
  1189.00        500.000        2622.55     
  1187.61        500.000        2622.75     
  1186.22        500.000        2622.67     
  1184.83        500.000        2622.73     
  1183.44        500.000        2622.91     
  1182.05        500.000        2622.99     
  1180.66        500.000        2623.04     
  1179.27        500.000        2623.09     
  1177.88        500.000        2623.13     
  1176.49        500.000        2623.23     
  1175.10        500.000        2623.29     
  1173.71        500.000        2623.35     
  1172.32        500.000        2623.40     
  1170.93        500.000        2623.46     
  1169.54        500.000        2623.50     
  1168.15        500.000        2623.56     
  1166.76        500.000        2623.64     
  1165.37        500.000        2623.68     
  1163.98        500.000        2623.75     
  1162.59        500.000        2623.81     
  1161.21        500.000        2623.74     
  1159.82        500.000        2623.80     
  1158.43        500.000        2623.87     
  1157.04        500.000        2623.93     
  1155.65        500.000        2623.99     
  1154.26        500.000        2624.05     
  1152.87        500.000        2624.11     
  1151.48        500.000        2624.20     
  1150.09        500.000        2624.25     
  1148.70        500.000        2624.32     
  1147.31        500.000        2624.37     
  1145.92        500.000        2624.42     
  1144.53        500.000        2624.60     
  1143.14        500.000        2624.64     
  1141.75        500.000        2624.71     
  1140.36        500.000        2624.68     
  1138.97        500.000        2624.72     
  1137.58        500.000        2624.79     
  1136.19        500.000        2624.85     
  1134.80        500.000        2624.91     
  1133.41        500.000        2624.97     
  1132.02        500.000        2625.04     
  1130.63        500.000        2625.10     
  1129.24        500.000        2625.15     
  1127.85        500.000        2625.22     
  1126.46        500.000        2625.37     
  1125.07        500.000        2625.43     
  1123.68        500.000        2625.40     
  1122.29        500.000        2625.55     
  1120.90        500.000        2625.46     
  1119.51        500.000        2625.56     
  1118.12        500.000        2625.72     
  1116.73        500.000        2625.77     
  1115.35        500.000        2625.82     
  1113.96        500.000        2625.84     
  1112.57        500.000        2625.97     
  1111.18        500.000        2625.97     
  1109.79        500.000        2626.08     
  1108.40        500.000        2626.01     
  1107.01        500.000        2626.20     
  1105.62        500.000        2626.18     
  1104.23        500.000        2626.07     
  1102.84        500.000        2626.35     
  1101.45        500.000        2626.42     
  1100.06        500.000        2626.48     
  1098.67        500.000        2626.54     
  1097.28        500.000        2626.51     
  1095.89        500.000        2626.57     
  1094.50        500.000        2626.63     
  1093.11        500.000        2626.69     
  1091.72        500.000        2626.75     
  1090.33        500.000        2626.83     
  1088.94        500.000        2626.75     
  1087.55        500.000        2626.83     
  1086.16        500.000        2626.96     
  1084.77        500.000        2626.92     
  1083.38        500.000        2627.00     
  1081.99        500.000        2627.14     
  1080.60        500.000        2627.21     
  1079.21        500.000        2627.26     
  1077.82        500.000        2627.31     
  1076.43        500.000        2627.37     
  1075.04        500.000        2627.43     
  1073.65        500.000        2627.48     
  1072.26        500.000        2627.54     
  1070.87        500.000        2627.59     
  1069.48        500.000        2627.65     
  1068.10        500.000        2627.70     
  1066.71        500.000        2627.76     
  1065.32        500.000        2627.82     
  1063.93        500.000        2627.91     
  1062.54        500.000        2627.99     
  1061.15        500.000        2628.08     
  1059.76        500.000        2628.16     
  1058.37        500.000        2628.23     
  1056.98        500.000        2628.20     
  1055.59        500.000        2628.27     
  1054.20        500.000        2628.31     
  1052.81        500.000        2628.34     
  1051.42        500.000        2628.50     
  1050.03        500.000        2628.56     
  1048.64        500.000        2628.58     
  1047.25        500.000        2628.67     
  1045.86        500.000        2628.72     
  1044.47        500.000        2628.66     
  1043.08        500.000        2628.80     
  1041.69        500.000        2628.85     
  1040.30        500.000        2628.86     
  1038.91        500.000        2629.00     
  1037.52        500.000        2629.07     
  1036.13        500.000        2629.11     
  1034.74        500.000        2629.16     
  1033.35        500.000        2629.22     
  1031.96        500.000        2629.29     
  1030.57        500.000        2629.26     
  1029.18        500.000        2629.39     
  1027.79        500.000        2629.45     
  1026.40        500.000        2627.50     
  1025.01        500.000        2627.53     
  1023.62        500.000        2627.57     
  1022.24        500.000        2627.61     
  1020.85        500.000        2627.65     
  1019.46        500.000        2627.69     
  1018.07        500.000        2627.73     
  1016.68        500.000        2627.77     
  1015.29        500.000        2629.95     
  1013.90        500.000        2630.00     
  1012.51        500.000        2630.07     
  1011.12        500.000        2630.12     
  1009.73        500.000        2630.17     
  1008.34        500.000        2630.23     
  1006.95        500.000        2630.28     
  1005.56        500.000        2630.34     
  1004.17        500.000        2630.37     
  1002.78        500.000        2630.44     
  1001.39        500.000        2630.51     
  1000.00        500.000        2628.20     
