|6.6.6
Archiving\03_Data\fracLP/QFM_m3/GRV/GRV_6.tab                             
           1
T(K)    
  0.000000000000000E+000
  0.000000000000000E+000
           0
           3
T(K)           P(bar)         rho,kg/m3     
  2000.00        500.000        3552.33     
  1997.49        500.000        3552.70     
  1994.99        500.000        3553.07     
  1992.48        500.000        3553.44     
  1989.97        500.000        3553.81     
  1987.47        500.000        3554.18     
  1984.96        500.000        3554.55     
  1982.46        500.000        3554.92     
  1979.95        500.000        3555.29     
  1977.44        500.000        3555.66     
  1974.94        500.000        3556.03     
  1972.43        500.000        3556.40     
  1969.92        500.000        3556.77     
  1967.42        500.000        3557.14     
  1964.91        500.000        3557.50     
  1962.41        500.000        3557.87     
  1959.90        500.000        3558.24     
  1957.39        500.000        3558.61     
  1954.89        500.000        3558.98     
  1952.38        500.000        3559.35     
  1949.87        500.000        3559.72     
  1947.37        500.000        3560.08     
  1944.86        500.000        3560.45     
  1942.36        500.000        3560.82     
  1939.85        500.000        3561.19     
  1937.34        500.000        3561.56     
  1934.84        500.000        3561.92     
  1932.33        500.000        3562.29     
  1929.82        500.000        3562.66     
  1927.32        500.000        3563.03     
  1924.81        500.000        3563.39     
  1922.31        500.000        3563.76     
  1919.80        500.000        3564.13     
  1917.29        500.000        3564.49     
  1914.79        500.000        3564.86     
  1912.28        500.000        3565.23     
  1909.77        500.000        3565.59     
  1907.27        500.000        3565.96     
  1904.76        500.000        3566.32     
  1902.26        500.000        3566.69     
  1899.75        500.000        3567.06     
  1897.24        500.000        3567.42     
  1894.74        500.000        3567.79     
  1892.23        500.000        3568.15     
  1889.72        500.000        3568.52     
  1887.22        500.000        3568.88     
  1884.71        500.000        3569.25     
  1882.21        500.000        3569.61     
  1879.70        500.000        3569.98     
  1877.19        500.000        3570.34     
  1874.69        500.000        3570.71     
  1872.18        500.000        3571.07     
  1869.67        500.000        3571.44     
  1867.17        500.000        3571.80     
  1864.66        500.000        3572.16     
  1862.16        500.000        3572.53     
  1859.65        500.000        3572.89     
  1857.14        500.000        3573.25     
  1854.64        500.000        3573.62     
  1852.13        500.000        3573.98     
  1849.62        500.000        3574.35     
  1847.12        500.000        3574.71     
  1844.61        500.000        3575.07     
  1842.11        500.000        3575.43     
  1839.60        500.000        3575.80     
  1837.09        500.000        3576.16     
  1834.59        500.000        3576.52     
  1832.08        500.000        3576.88     
  1829.57        500.000        3577.25     
  1827.07        500.000        3577.61     
  1824.56        500.000        3577.97     
  1822.06        500.000        3578.33     
  1819.55        500.000        3578.70     
  1817.04        500.000        3579.06     
  1814.54        500.000        3579.42     
  1812.03        500.000        3579.78     
  1809.52        500.000        3580.14     
  1807.02        500.000        3580.50     
  1804.51        500.000        3580.86     
  1802.01        500.000        3586.63     
  1799.50        500.000        3595.45     
  1796.99        500.000        3595.71     
  1794.49        500.000        3595.98     
  1791.98        500.000        3596.24     
  1789.47        500.000        3596.51     
  1786.97        500.000        3596.79     
  1784.46        500.000        3596.99     
  1781.95        500.000        3597.30     
  1779.45        500.000        3597.55     
  1776.94        500.000        3602.22     
  1774.44        500.000        3593.64     
  1771.93        500.000        3598.36     
  1769.42        500.000        3598.62     
  1766.92        500.000        3598.87     
  1764.41        500.000        3599.19     
  1761.90        500.000        3599.39     
  1759.40        500.000        3280.26     
  1756.89        500.000        3278.83     
  1754.39        500.000        3280.66     
  1751.88        500.000        3282.77     
  1749.37        500.000        3284.19     
  1746.87        500.000        3285.38     
  1744.36        500.000        3287.71     
  1741.85        500.000        3288.94     
  1739.35        500.000        3291.03     
  1736.84        500.000        3292.76     
  1734.34        500.000        3294.20     
  1731.83        500.000        3295.99     
  1729.32        500.000        3297.19     
  1726.82        500.000        3299.54     
  1724.31        500.000        3300.87     
  1721.80        500.000        3302.47     
  1719.30        500.000        3304.16     
  1716.79        500.000        3305.89     
  1714.29        500.000        3307.92     
  1711.78        500.000        3308.80     
  1709.27        500.000        3310.76     
  1706.77        500.000        3312.43     
  1704.26        500.000        3314.15     
  1701.75        500.000        3315.58     
  1699.25        500.000        3318.12     
  1696.74        500.000        3318.76     
  1694.24        500.000        3319.74     
  1691.73        500.000        3322.17     
  1689.22        500.000        3323.48     
  1686.72        500.000        3324.94     
  1684.21        500.000        3326.57     
  1681.70        500.000        3329.56     
  1679.20        500.000        3329.45     
  1676.69        500.000        3331.14     
  1674.19        500.000        3332.53     
  1671.68        500.000        3334.16     
  1669.17        500.000        3335.75     
  1666.67        500.000        3336.87     
  1664.16        500.000        3339.39     
  1661.65        500.000        3340.12     
  1659.15        500.000        3347.80     
  1656.64        500.000        3343.12     
  1654.14        500.000        3344.14     
  1651.63        500.000        3345.91     
  1649.12        500.000        3347.58     
  1646.62        500.000        3350.04     
  1644.11        500.000        3350.37     
  1641.60        500.000        3349.80     
  1639.10        500.000        3352.62     
  1636.59        500.000        3355.36     
  1634.09        500.000        3354.05     
  1631.58        500.000        3356.17     
  1629.07        500.000        3358.02     
  1626.57        500.000        3359.09     
  1624.06        500.000        3234.27     
  1621.55        500.000        3233.70     
  1619.05        500.000        3235.41     
  1616.54        500.000        3236.04     
  1614.04        500.000        3236.69     
  1611.53        500.000        3238.12     
  1609.02        500.000        3239.36     
  1606.52        500.000        3240.15     
  1604.01        500.000        3241.11     
  1601.50        500.000        3242.46     
  1599.00        500.000        3243.52     
  1596.49        500.000        3244.63     
  1593.98        500.000        3245.51     
  1591.48        500.000        3246.54     
  1588.97        500.000        3247.97     
  1586.47        500.000        3248.92     
  1583.96        500.000        3250.03     
  1581.45        500.000        3250.85     
  1578.95        500.000        3252.08     
  1576.44        500.000        3253.31     
  1573.93        500.000        3254.79     
  1571.43        500.000        3256.75     
  1568.92        500.000        3258.05     
  1566.42        500.000        3257.84     
  1563.91        500.000        3259.28     
  1561.40        500.000        3260.03     
  1558.90        500.000        3262.28     
  1556.39        500.000        3263.26     
  1553.88        500.000        3264.28     
  1551.38        500.000        3265.39     
  1548.87        500.000        3266.42     
  1546.37        500.000        3268.02     
  1543.86        500.000        3269.00     
  1541.35        500.000        3270.19     
  1538.85        500.000        3271.59     
  1536.34        500.000        3270.49     
  1533.83        500.000        3259.42     
  1531.33        500.000        3263.92     
  1528.82        500.000        3271.30     
  1526.32        500.000        3272.33     
  1523.81        500.000        3272.77     
  1521.30        500.000        3265.81     
  1518.80        500.000        3260.52     
  1516.29        500.000        3262.81     
  1513.78        500.000        3265.26     
  1511.28        500.000        3267.49     
  1508.77        500.000        3269.63     
  1506.27        500.000        3272.01     
  1503.76        500.000        3274.28     
  1501.25        500.000        3276.44     
  1498.75        500.000        3279.05     
  1496.24        500.000        3281.20     
  1493.73        500.000        3283.46     
  1491.23        500.000        3282.57     
  1488.72        500.000        3291.67     
  1486.22        500.000        3290.53     
  1483.71        500.000        3292.73     
  1481.20        500.000        3295.18     
  1478.70        500.000        3297.49     
  1476.19        500.000        3299.74     
  1473.68        500.000        3302.03     
  1471.18        500.000        3304.20     
  1468.67        500.000        3306.94     
  1466.17        500.000        3308.97     
  1463.66        500.000        3311.67     
  1461.15        500.000        3314.22     
  1458.65        500.000        3316.34     
  1456.14        500.000        3318.54     
  1453.63        500.000        3321.17     
  1451.13        500.000        3323.44     
  1448.62        500.000        3325.98     
  1446.12        500.000        3328.51     
  1443.61        500.000        3331.08     
  1441.10        500.000        3333.52     
  1438.60        500.000        3336.41     
  1436.09        500.000        3338.48     
  1433.58        500.000        3340.94     
  1431.08        500.000        3343.43     
  1428.57        500.000        3346.14     
  1426.07        500.000        3348.75     
  1423.56        500.000        3351.38     
  1421.05        500.000        3353.88     
  1418.55        500.000        3356.37     
  1416.04        500.000        3358.98     
  1413.53        500.000        3361.65     
  1411.03        500.000        3364.23     
  1408.52        500.000        3367.15     
  1406.02        500.000        3369.55     
  1403.51        500.000        3372.63     
  1401.00        500.000        3375.17     
  1398.50        500.000        3377.87     
  1395.99        500.000        3380.72     
  1393.48        500.000        3194.85     
  1390.98        500.000        3175.80     
  1388.47        500.000        3179.18     
  1385.96        500.000        3182.36     
  1383.46        500.000        3185.81     
  1380.95        500.000        3189.15     
  1378.45        500.000        3192.57     
  1375.94        500.000        3196.29     
  1373.43        500.000        3199.58     
  1370.93        500.000        3202.94     
  1368.42        500.000        3206.54     
  1365.91        500.000        3209.88     
  1363.41        500.000        3212.00     
  1360.90        500.000        3208.98     
  1358.40        500.000        3215.20     
  1355.89        500.000        3232.01     
  1353.38        500.000        3229.99     
  1350.88        500.000        3236.70     
  1348.37        500.000        3244.95     
  1345.86        500.000        3281.87     
  1343.36        500.000        3324.91     
  1340.85        500.000        3333.74     
  1338.35        500.000        3341.52     
  1335.84        500.000        3348.48     
  1333.33        500.000        3354.45     
  1330.83        500.000        3359.53     
  1328.32        500.000        3364.58     
  1325.81        500.000        3368.89     
  1323.31        500.000        3372.54     
  1320.80        500.000        3375.73     
  1318.30        500.000        3378.57     
  1315.79        500.000        3380.96     
  1313.28        500.000        3410.79     
  1310.78        500.000        3413.64     
  1308.27        500.000        3414.73     
  1305.76        500.000        3415.15     
  1303.26        500.000        3415.39     
  1300.75        500.000        3415.30     
  1298.25        500.000        3415.24     
  1295.74        500.000        3414.44     
  1293.23        500.000        3413.55     
  1290.73        500.000        3413.02     
  1288.22        500.000        3411.05     
  1285.71        500.000        3409.37     
  1283.21        500.000        3406.57     
  1280.70        500.000        3402.92     
  1278.20        500.000        3397.59     
  1275.69        500.000        3389.60     
  1273.18        500.000        3374.16     
  1270.68        500.000        3354.40     
  1268.17        500.000        3353.58     
  1265.66        500.000        3354.16     
  1263.16        500.000        3347.44     
  1260.65        500.000        3349.72     
  1258.15        500.000        3351.19     
  1255.64        500.000        3353.07     
  1253.13        500.000        3354.44     
  1250.63        500.000        3355.70     
  1248.12        500.000        3357.02     
  1245.61        500.000        3358.65     
  1243.11        500.000        2935.58     
  1240.60        500.000        2864.93     
  1238.10        500.000        2865.19     
  1235.59        500.000        2866.77     
  1233.08        500.000        2867.87     
  1230.58        500.000        2868.09     
  1228.07        500.000        2868.46     
  1225.56        500.000        2869.40     
  1223.06        500.000        2868.85     
  1220.55        500.000        2868.60     
  1218.05        500.000        2692.11     
  1215.54        500.000        2691.48     
  1213.03        500.000        2691.52     
  1210.53        500.000        2690.37     
  1208.02        500.000        2680.29     
  1205.51        500.000        2676.73     
  1203.01        500.000        2722.62     
  1200.50        500.000        2655.26     
  1197.99        500.000        2675.60     
  1195.49        500.000        2665.68     
  1192.98        500.000        2669.16     
  1190.48        500.000        2649.65     
  1187.97        500.000        2627.14     
  1185.46        500.000        2627.24     
  1182.96        500.000        2627.33     
  1180.45        500.000        2627.43     
  1177.94        500.000        2627.53     
  1175.44        500.000        2627.63     
  1172.93        500.000        2627.74     
  1170.43        500.000        2627.84     
  1167.92        500.000        2627.94     
  1165.41        500.000        2628.23     
  1162.91        500.000        2628.35     
  1160.40        500.000        2628.26     
  1157.89        500.000        2628.35     
  1155.39        500.000        2628.61     
  1152.88        500.000        2631.29     
  1150.38        500.000        2630.87     
  1147.87        500.000        2634.00     
  1145.36        500.000        2631.44     
  1142.86        500.000        2631.46     
  1140.35        500.000        2631.51     
  1137.84        500.000        2631.55     
  1135.34        500.000        2631.52     
  1132.83        500.000        2630.07     
  1130.33        500.000        2631.73     
  1127.82        500.000        2631.81     
  1125.31        500.000        2631.89     
  1122.81        500.000        2631.86     
  1120.30        500.000        2631.93     
  1117.79        500.000        2632.07     
  1115.29        500.000        2632.12     
  1112.78        500.000        2630.17     
  1110.28        500.000        2632.24     
  1107.77        500.000        2632.32     
  1105.26        500.000        2632.39     
  1102.76        500.000        2632.46     
  1100.25        500.000        2632.60     
  1097.74        500.000        2632.61     
  1095.24        500.000        2632.70     
  1092.73        500.000        2632.83     
  1090.23        500.000        2632.85     
  1087.72        500.000        2633.97     
  1085.21        500.000        2633.12     
  1082.71        500.000        2633.08     
  1080.20        500.000        2633.22     
  1077.69        500.000        2633.24     
  1075.19        500.000        2631.65     
  1072.68        500.000        2631.76     
  1070.18        500.000        2633.49     
  1067.67        500.000        2633.66     
  1065.16        500.000        2633.72     
  1062.66        500.000        2632.15     
  1060.15        500.000        2633.84     
  1057.64        500.000        2633.92     
  1055.14        500.000        2634.03     
  1052.63        500.000        2632.54     
  1050.13        500.000        2632.65     
  1047.62        500.000        2632.75     
  1045.11        500.000        2632.84     
  1042.61        500.000        2634.84     
  1040.10        500.000        2634.57     
  1037.59        500.000        2633.13     
  1035.09        500.000        2633.31     
  1032.58        500.000        2633.32     
  1030.08        500.000        2633.46     
  1027.57        500.000        2634.96     
  1025.06        500.000        2635.04     
  1022.56        500.000        2633.73     
  1020.05        500.000        2633.84     
  1017.54        500.000        2633.93     
  1015.04        500.000        2634.03     
  1012.53        500.000        2634.12     
  1010.03        500.000        2634.22     
  1007.52        500.000        2634.32     
  1005.01        500.000        2634.42     
  1002.51        500.000        2634.52     
  1000.00        500.000        2634.63     
