|6.6.6
Archiving\03_Data\frac/QFM_m3.75/EETA/EETA_6.tab                          
           1
T(K)    
  0.000000000000000E+000
  0.000000000000000E+000
           0
           3
T(K)           P(bar)         rho,kg/m3     
  2000.00        2500.00        3627.41     
  1997.49        2500.00        3627.79     
  1994.99        2500.00        3628.17     
  1992.48        2500.00        3628.54     
  1989.97        2500.00        3628.92     
  1987.47        2500.00        3629.30     
  1984.96        2500.00        3629.68     
  1982.46        2500.00        3630.05     
  1979.95        2500.00        3630.43     
  1977.44        2500.00        3630.81     
  1974.94        2500.00        3631.18     
  1972.43        2500.00        3631.56     
  1969.92        2500.00        3631.93     
  1967.42        2500.00        3632.31     
  1964.91        2500.00        3632.69     
  1962.41        2500.00        3633.06     
  1959.90        2500.00        3633.44     
  1957.39        2500.00        3633.81     
  1954.89        2500.00        3634.19     
  1952.38        2500.00        3634.56     
  1949.87        2500.00        3634.94     
  1947.37        2500.00        3635.31     
  1944.86        2500.00        3635.69     
  1942.36        2500.00        3636.06     
  1939.85        2500.00        3636.44     
  1937.34        2500.00        3636.81     
  1934.84        2500.00        3637.18     
  1932.33        2500.00        3637.56     
  1929.82        2500.00        3637.93     
  1927.32        2500.00        3638.31     
  1924.81        2500.00        3638.68     
  1922.31        2500.00        3639.05     
  1919.80        2500.00        3639.43     
  1917.29        2500.00        3639.80     
  1914.79        2500.00        3640.17     
  1912.28        2500.00        3640.55     
  1909.77        2500.00        3640.92     
  1907.27        2500.00        3641.29     
  1904.76        2500.00        3641.66     
  1902.26        2500.00        3642.04     
  1899.75        2500.00        3642.41     
  1897.24        2500.00        3642.78     
  1894.74        2500.00        3643.15     
  1892.23        2500.00        3643.53     
  1889.72        2500.00        3643.90     
  1887.22        2500.00        3644.27     
  1884.71        2500.00        3644.64     
  1882.21        2500.00        3645.01     
  1879.70        2500.00        3645.38     
  1877.19        2500.00        3645.75     
  1874.69        2500.00        3646.13     
  1872.18        2500.00        3646.50     
  1869.67        2500.00        3646.87     
  1867.17        2500.00        3647.24     
  1864.66        2500.00        3647.61     
  1862.16        2500.00        3647.98     
  1859.65        2500.00        3648.35     
  1857.14        2500.00        3648.72     
  1854.64        2500.00        3649.09     
  1852.13        2500.00        3649.46     
  1849.62        2500.00        3649.83     
  1847.12        2500.00        3650.20     
  1844.61        2500.00        3650.57     
  1842.11        2500.00        3650.94     
  1839.60        2500.00        3651.31     
  1837.09        2500.00        3651.68     
  1834.59        2500.00        3652.05     
  1832.08        2500.00        3652.42     
  1829.57        2500.00        3652.78     
  1827.07        2500.00        3653.15     
  1824.56        2500.00        3653.52     
  1822.06        2500.00        3653.89     
  1819.55        2500.00        3654.26     
  1817.04        2500.00        3654.63     
  1814.54        2500.00        3654.99     
  1812.03        2500.00        3655.36     
  1809.52        2500.00        3655.73     
  1807.02        2500.00        3656.10     
  1804.51        2500.00        3656.47     
  1802.01        2500.00        3656.83     
  1799.50        2500.00        3657.20     
  1796.99        2500.00        3657.57     
  1794.49        2500.00        3657.93     
  1791.98        2500.00        3658.30     
  1789.47        2500.00        3658.67     
  1786.97        2500.00        3659.04     
  1784.46        2500.00        3659.40     
  1781.95        2500.00        3659.77     
  1779.45        2500.00        3660.13     
  1776.94        2500.00        3660.50     
  1774.44        2500.00        3660.87     
  1771.93        2500.00        3661.23     
  1769.42        2500.00        3661.60     
  1766.92        2500.00        3661.96     
  1764.41        2500.00        3662.33     
  1761.90        2500.00        3662.70     
  1759.40        2500.00        3663.06     
  1756.89        2500.00        3663.43     
  1754.39        2500.00        3663.79     
  1751.88        2500.00        3664.16     
  1749.37        2500.00        3664.52     
  1746.87        2500.00        3664.89     
  1744.36        2500.00        3665.25     
  1741.85        2500.00        3665.62     
  1739.35        2500.00        3665.98     
  1736.84        2500.00        3666.34     
  1734.34        2500.00        3666.71     
  1731.83        2500.00        3667.07     
  1729.32        2500.00        3667.44     
  1726.82        2500.00        3667.80     
  1724.31        2500.00        3668.16     
  1721.80        2500.00        3668.53     
  1719.30        2500.00        3668.89     
  1716.79        2500.00        3669.25     
  1714.29        2500.00        3669.62     
  1711.78        2500.00        3669.98     
  1709.27        2500.00        3670.34     
  1706.77        2500.00        3670.71     
  1704.26        2500.00        3671.07     
  1701.75        2500.00        3671.43     
  1699.25        2500.00        3671.79     
  1696.74        2500.00        3672.16     
  1694.24        2500.00        3672.52     
  1691.73        2500.00        3672.88     
  1689.22        2500.00        3673.24     
  1686.72        2500.00        3673.60     
  1684.21        2500.00        3673.97     
  1681.70        2500.00        3674.33     
  1679.20        2500.00        3674.69     
  1676.69        2500.00        3675.05     
  1674.19        2500.00        3675.41     
  1671.68        2500.00        3675.77     
  1669.17        2500.00        3676.13     
  1666.67        2500.00        3676.49     
  1664.16        2500.00        3676.85     
  1661.65        2500.00        3677.22     
  1659.15        2500.00        3677.58     
  1656.64        2500.00        3678.25     
  1654.14        2500.00        3686.67     
  1651.63        2500.00        3687.02     
  1649.12        2500.00        3687.23     
  1646.62        2500.00        3687.55     
  1644.11        2500.00        3687.85     
  1641.60        2500.00        3688.20     
  1639.10        2500.00        3688.34     
  1636.59        2500.00        3688.73     
  1634.09        2500.00        3688.99     
  1631.58        2500.00        3689.29     
  1629.07        2500.00        3689.59     
  1626.57        2500.00        3584.43     
  1624.06        2500.00        4506.65     
  1621.55        2500.00        3438.19     
  1619.05        2500.00        3417.06     
  1616.54        2500.00        3418.96     
  1614.04        2500.00        3420.81     
  1611.53        2500.00        3422.16     
  1609.02        2500.00        3425.04     
  1606.52        2500.00        3426.31     
  1604.01        2500.00        3431.16     
  1601.50        2500.00        3428.88     
  1599.00        2500.00        3427.51     
  1596.49        2500.00        3433.42     
  1593.98        2500.00        3435.55     
  1591.48        2500.00        3414.03     
  1588.97        2500.00        3296.57     
  1586.47        2500.00        3298.28     
  1583.96        2500.00        3298.75     
  1581.45        2500.00        3300.13     
  1578.95        2500.00        3293.74     
  1576.44        2500.00        3441.96     
  1573.93        2500.00        3304.08     
  1571.43        2500.00        3306.21     
  1568.92        2500.00        3306.97     
  1566.42        2500.00        3307.94     
  1563.91        2500.00        3309.16     
  1561.40        2500.00        3310.34     
  1558.90        2500.00        3311.59     
  1556.39        2500.00        3313.75     
  1553.88        2500.00        3313.91     
  1551.38        2500.00        3315.18     
  1548.87        2500.00        3316.67     
  1546.37        2500.00        3317.95     
  1543.86        2500.00        3318.80     
  1541.35        2500.00        3320.27     
  1538.85        2500.00        3320.46     
  1536.34        2500.00        3321.29     
  1533.83        2500.00        3297.07     
  1531.33        2500.00        3301.72     
  1528.82        2500.00        3295.21     
  1526.32        2500.00        3296.80     
  1523.81        2500.00        3298.34     
  1521.30        2500.00        3299.30     
  1518.80        2500.00        3300.58     
  1516.29        2500.00        3303.02     
  1513.78        2500.00        3304.14     
  1511.28        2500.00        3305.70     
  1508.77        2500.00        3308.00     
  1506.27        2500.00        3308.83     
  1503.76        2500.00        3310.51     
  1501.25        2500.00        3318.91     
  1498.75        2500.00        3319.37     
  1496.24        2500.00        3319.47     
  1493.73        2500.00        3299.88     
  1491.23        2500.00        3299.02     
  1488.72        2500.00        3300.96     
  1486.22        2500.00        3303.31     
  1483.71        2500.00        3305.52     
  1481.20        2500.00        3307.69     
  1478.70        2500.00        3309.91     
  1476.19        2500.00        3312.31     
  1473.68        2500.00        3314.46     
  1471.18        2500.00        3316.92     
  1468.67        2500.00        3319.28     
  1466.17        2500.00        3321.53     
  1463.66        2500.00        3323.84     
  1461.15        2500.00        3326.21     
  1458.65        2500.00        3328.52     
  1456.14        2500.00        3331.13     
  1453.63        2500.00        3333.31     
  1451.13        2500.00        3335.36     
  1448.62        2500.00        3338.37     
  1446.12        2500.00        3340.69     
  1443.61        2500.00        3345.23     
  1441.10        2500.00        3354.54     
  1438.60        2500.00        3358.09     
  1436.09        2500.00        3359.72     
  1433.58        2500.00        3361.80     
  1431.08        2500.00        3364.18     
  1428.57        2500.00        3366.51     
  1426.07        2500.00        3368.93     
  1423.56        2500.00        3244.17     
  1421.05        2500.00        3185.20     
  1418.55        2500.00        3188.90     
  1416.04        2500.00        3193.38     
  1413.53        2500.00        3203.87     
  1411.03        2500.00        3201.83     
  1408.52        2500.00        3205.81     
  1406.02        2500.00        3210.09     
  1403.51        2500.00        3214.23     
  1401.00        2500.00        3218.54     
  1398.50        2500.00        3222.54     
  1395.99        2500.00        3226.47     
  1393.48        2500.00        3226.71     
  1390.98        2500.00        3235.93     
  1388.47        2500.00        3238.14     
  1385.96        2500.00        3241.97     
  1383.46        2500.00        3245.60     
  1380.95        2500.00        3249.30     
  1378.45        2500.00        3253.09     
  1375.94        2500.00        3258.05     
  1373.43        2500.00        3261.56     
  1370.93        2500.00        3263.43     
  1368.42        2500.00        3267.41     
  1365.91        2500.00        3270.73     
  1363.41        2500.00        3273.70     
  1360.90        2500.00        3277.29     
  1358.40        2500.00        3280.58     
  1355.89        2500.00        3283.50     
  1353.38        2500.00        3286.66     
  1350.88        2500.00        3289.66     
  1348.37        2500.00        3292.43     
  1345.86        2500.00        3295.20     
  1343.36        2500.00        3297.62     
  1340.85        2500.00        3326.70     
  1338.35        2500.00        3341.95     
  1335.84        2500.00        3344.05     
  1333.33        2500.00        3345.48     
  1330.83        2500.00        3347.29     
  1328.32        2500.00        3348.97     
  1325.81        2500.00        3349.78     
  1323.31        2500.00        3350.86     
  1320.80        2500.00        3351.79     
  1318.30        2500.00        3353.03     
  1315.79        2500.00        3353.93     
  1313.28        2500.00        3354.46     
  1310.78        2500.00        3356.04     
  1308.27        2500.00        3354.83     
  1305.76        2500.00        3357.18     
  1303.26        2500.00        3356.67     
  1300.75        2500.00        3355.70     
  1298.25        2500.00        2866.85     
  1295.74        2500.00        2873.88     
  1293.23        2500.00        2880.25     
  1290.73        2500.00        2885.69     
  1288.22        2500.00        2890.02     
  1285.71        2500.00        2893.70     
  1283.21        2500.00        2870.30     
  1280.70        2500.00        2973.34     
  1278.20        2500.00        2843.61     
  1275.69        2500.00        2854.14     
  1273.18        2500.00        2866.61     
  1270.68        2500.00        2887.77     
  1268.17        2500.00        2878.38     
  1265.66        2500.00        2947.71     
  1263.16        2500.00        2969.02     
  1260.65        2500.00        2956.50     
  1258.15        2500.00        3037.93     
  1255.64        2500.00        3046.14     
  1253.13        2500.00        2867.56     
  1250.63        2500.00        3762.86     
  1248.12        2500.00        2826.26     
  1245.61        2500.00        3551.20     
  1243.11        2500.00        2922.47     
  1240.60        2500.00        2718.49     
  1238.10        2500.00        2932.57     
  1235.59        2500.00        2927.66     
  1233.08        2500.00        2714.95     
  1230.58        2500.00        2682.17     
  1228.07        2500.00        2682.22     
  1225.56        2500.00        2682.33     
  1223.06        2500.00        2682.47     
  1220.55        2500.00        2682.59     
  1218.05        2500.00        2682.73     
  1215.54        2500.00        2682.86     
  1213.03        2500.00        2682.99     
  1210.53        2500.00        2683.12     
  1208.02        2500.00        2683.25     
  1205.51        2500.00        2683.38     
  1203.01        2500.00        2683.51     
  1200.50        2500.00        2683.64     
  1197.99        2500.00        2683.77     
  1195.49        2500.00        2683.90     
  1192.98        2500.00        2684.03     
  1190.48        2500.00        2684.16     
  1187.97        2500.00        2684.29     
  1185.46        2500.00        2684.42     
  1182.96        2500.00        2684.55     
  1180.45        2500.00        2684.68     
  1177.94        2500.00        2684.81     
  1175.44        2500.00        2684.94     
  1172.93        2500.00        2685.07     
  1170.43        2500.00        2685.20     
  1167.92        2500.00        2685.19     
  1165.41        2500.00        2685.32     
  1162.91        2500.00        2685.59     
  1160.40        2500.00        2685.72     
  1157.89        2500.00        2685.85     
  1155.39        2500.00        2686.03     
  1152.88        2500.00        2686.12     
  1150.38        2500.00        2686.25     
  1147.87        2500.00        2686.37     
  1145.36        2500.00        2686.51     
  1142.86        2500.00        2686.64     
  1140.35        2500.00        2686.76     
  1137.84        2500.00        2686.89     
  1135.34        2500.00        2687.07     
  1132.83        2500.00        2686.72     
  1130.33        2500.00        2687.29     
  1127.82        2500.00        2687.42     
  1125.31        2500.00        2687.55     
  1122.81        2500.00        2687.69     
  1120.30        2500.00        2687.84     
  1117.79        2500.00        2687.97     
  1115.29        2500.00        2687.87     
  1112.78        2500.00        2687.99     
  1110.28        2500.00        2688.12     
  1107.77        2500.00        2688.25     
  1105.26        2500.00        2688.38     
  1102.76        2500.00        2688.51     
  1100.25        2500.00        2688.64     
  1097.74        2500.00        2688.76     
  1095.24        2500.00        2688.89     
  1092.73        2500.00        2689.02     
  1090.23        2500.00        2689.15     
  1087.72        2500.00        2689.27     
  1085.21        2500.00        2689.40     
  1082.71        2500.00        2689.53     
  1080.20        2500.00        2689.66     
  1077.69        2500.00        2689.78     
  1075.19        2500.00        2689.91     
  1072.68        2500.00        2690.04     
  1070.18        2500.00        2690.17     
  1067.67        2500.00        2690.29     
  1065.16        2500.00        2690.42     
  1062.66        2500.00        2690.55     
  1060.15        2500.00        2690.67     
  1057.64        2500.00        2690.84     
  1055.14        2500.00        2690.97     
  1052.63        2500.00        2691.10     
  1050.13        2500.00        2691.22     
  1047.62        2500.00        2691.35     
  1045.11        2500.00        2691.48     
  1042.61        2500.00        2691.60     
  1040.10        2500.00        2691.73     
  1037.59        2500.00        2691.85     
  1035.09        2500.00        2691.98     
  1032.58        2500.00        2692.12     
  1030.08        2500.00        2692.24     
  1027.57        2500.00        2692.34     
  1025.06        2500.00        2692.46     
  1022.56        2500.00        2692.58     
  1020.05        2500.00        2692.71     
  1017.54        2500.00        2692.84     
  1015.04        2500.00        2692.96     
  1012.53        2500.00        2693.09     
  1010.03        2500.00        2693.22     
  1007.52        2500.00        2693.34     
  1005.01        2500.00        2693.47     
  1002.51        2500.00        2693.59     
  1000.00        2500.00        2693.72     
