|6.6.6
Archiving\03_Data\eqfrac/QFM_m1/ALH/ALH_6.tab                             
           1
T(K)    
  0.000000000000000E+000
  0.000000000000000E+000
           0
           3
T(K)           P(bar)         rho,kg/m3     
  1557.69        2500.00        3351.13     
  1556.29        2500.00        3280.51     
  1554.89        2500.00        3281.09     
  1553.50        2500.00        3281.77     
  1552.10        2500.00        3281.92     
  1550.70        2500.00        3283.31     
  1549.30        2500.00        3317.20     
  1547.91        2500.00        3272.31     
  1546.51        2500.00        3278.90     
  1545.11        2500.00        3273.20     
  1543.71        2500.00        3273.83     
  1542.32        2500.00        3285.82     
  1540.92        2500.00        3286.62     
  1539.52        2500.00        3287.48     
  1538.12        2500.00        3287.82     
  1536.72        2500.00        3289.79     
  1535.33        2500.00        3287.01     
  1533.93        2500.00        3289.73     
  1532.53        2500.00        3288.15     
  1531.13        2500.00        3288.89     
  1529.74        2500.00        3291.23     
  1528.34        2500.00        3292.13     
  1526.94        2500.00        3292.58     
  1525.54        2500.00        3291.95     
  1524.14        2500.00        3293.94     
  1522.75        2500.00        3293.96     
  1521.35        2500.00        3293.90     
  1519.95        2500.00        3294.61     
  1518.55        2500.00        3295.12     
  1517.16        2500.00        3296.00     
  1515.76        2500.00        3296.31     
  1514.36        2500.00        3296.90     
  1512.96        2500.00        3274.53     
  1511.57        2500.00        3267.57     
  1510.17        2500.00        3268.47     
  1508.77        2500.00        3269.33     
  1507.37        2500.00        3269.87     
  1505.97        2500.00        3271.42     
  1504.58        2500.00        3271.50     
  1503.18        2500.00        3272.91     
  1501.78        2500.00        3273.69     
  1500.38        2500.00        3273.91     
  1498.99        2500.00        3275.56     
  1497.59        2500.00        3275.41     
  1496.19        2500.00        3276.97     
  1494.79        2500.00        3278.30     
  1493.39        2500.00        3278.37     
  1492.00        2500.00        3264.59     
  1490.60        2500.00        3265.78     
  1489.20        2500.00        3267.34     
  1487.80        2500.00        3268.55     
  1486.41        2500.00        3269.52     
  1485.01        2500.00        3270.77     
  1483.61        2500.00        3271.91     
  1482.21        2500.00        3273.65     
  1480.82        2500.00        3274.45     
  1479.42        2500.00        3275.44     
  1478.02        2500.00        3277.23     
  1476.62        2500.00        3277.98     
  1475.22        2500.00        3279.30     
  1473.83        2500.00        3280.59     
  1472.43        2500.00        3281.68     
  1471.03        2500.00        3284.64     
  1469.63        2500.00        3293.87     
  1468.24        2500.00        2873.07     
  1466.84        2500.00        3292.91     
  1465.44        2500.00        3293.94     
  1464.04        2500.00        3292.66     
  1462.65        2500.00        3297.26     
  1461.25        2500.00        3299.31     
  1459.85        2500.00        3300.01     
  1458.45        2500.00        3301.11     
  1457.05        2500.00        3302.26     
  1455.66        2500.00        3303.38     
  1454.26        2500.00        3304.30     
  1452.86        2500.00        3305.32     
  1451.46        2500.00        3306.68     
  1450.07        2500.00        3307.59     
  1448.67        2500.00        3308.56     
  1447.27        2500.00        3309.78     
  1445.87        2500.00        3311.01     
  1444.47        2500.00        3312.03     
  1443.08        2500.00        3313.41     
  1441.68        2500.00        3314.11     
  1440.28        2500.00        3315.27     
  1438.88        2500.00        3316.50     
  1437.49        2500.00        3317.26     
  1436.09        2500.00        3318.71     
  1434.69        2500.00        3319.86     
  1433.29        2500.00        3323.65     
  1431.90        2500.00        3322.26     
  1430.50        2500.00        3323.20     
  1429.10        2500.00        3324.42     
  1427.70        2500.00        3325.59     
  1426.30        2500.00        3326.56     
  1424.91        2500.00        3325.83     
  1423.51        2500.00        3582.59     
  1422.11        2500.00        3330.98     
  1420.71        2500.00        3331.55     
  1419.32        2500.00        3332.74     
  1417.92        2500.00        3186.35     
  1416.52        2500.00        3160.75     
  1415.12        2500.00        3182.26     
  1413.72        2500.00        3164.14     
  1412.33        2500.00        3166.52     
  1410.93        2500.00        3168.29     
  1409.53        2500.00        3170.39     
  1408.13        2500.00        3172.34     
  1406.74        2500.00        3174.50     
  1405.34        2500.00        3176.49     
  1403.94        2500.00        3178.27     
  1402.54        2500.00        3180.51     
  1401.15        2500.00        3182.38     
  1399.75        2500.00        3184.45     
  1398.35        2500.00        3186.24     
  1396.95        2500.00        3188.64     
  1395.55        2500.00        3190.72     
  1394.16        2500.00        3192.72     
  1392.76        2500.00        3194.71     
  1391.36        2500.00        3197.52     
  1389.96        2500.00        3198.36     
  1388.57        2500.00        3201.46     
  1387.17        2500.00        3203.24     
  1385.77        2500.00        3205.40     
  1384.37        2500.00        3207.31     
  1382.98        2500.00        3209.37     
  1381.58        2500.00        3210.64     
  1380.18        2500.00        3213.43     
  1378.78        2500.00        3215.87     
  1377.38        2500.00        3217.74     
  1375.99        2500.00        3219.86     
  1374.59        2500.00        3221.94     
  1373.19        2500.00        3224.13     
  1371.79        2500.00        3226.01     
  1370.40        2500.00        3227.90     
  1369.00        2500.00        3230.50     
  1367.60        2500.00        3232.44     
  1366.20        2500.00        3234.39     
  1364.80        2500.00        3236.69     
  1363.41        2500.00        3238.61     
  1362.01        2500.00        3240.66     
  1360.61        2500.00        3242.97     
  1359.21        2500.00        3244.92     
  1357.82        2500.00        3246.69     
  1356.42        2500.00        3248.77     
  1355.02        2500.00        3250.67     
  1353.62        2500.00        3252.96     
  1352.23        2500.00        3254.66     
  1350.83        2500.00        3256.71     
  1349.43        2500.00        3258.68     
  1348.03        2500.00        3260.48     
  1346.63        2500.00        3262.30     
  1345.24        2500.00        3264.64     
  1343.84        2500.00        3266.19     
  1342.44        2500.00        3267.98     
  1341.04        2500.00        3269.24     
  1339.65        2500.00        3271.60     
  1338.25        2500.00        3302.15     
  1336.85        2500.00        3344.31     
  1335.45        2500.00        3332.48     
  1334.05        2500.00        3356.04     
  1332.66        2500.00        3352.22     
  1331.26        2500.00        3349.87     
  1329.86        2500.00        3350.55     
  1328.46        2500.00        3351.10     
  1327.07        2500.00        3351.72     
  1325.67        2500.00        3352.18     
  1324.27        2500.00        3352.63     
  1322.87        2500.00        3352.87     
  1321.48        2500.00        3353.21     
  1320.08        2500.00        3353.34     
  1318.68        2500.00        3353.64     
  1317.28        2500.00        3353.73     
  1315.88        2500.00        3353.81     
  1314.49        2500.00        3353.82     
  1313.09        2500.00        3353.70     
  1311.69        2500.00        3353.77     
  1310.29        2500.00        3353.65     
  1308.90        2500.00        3353.47     
  1307.50        2500.00        3353.29     
  1306.10        2500.00        3353.05     
  1304.70        2500.00        3352.76     
  1303.31        2500.00        3352.05     
  1301.91        2500.00        3352.49     
  1300.51        2500.00        3351.63     
  1299.11        2500.00        3351.13     
  1297.71        2500.00        3350.59     
  1296.32        2500.00        2868.71     
  1294.92        2500.00        2864.71     
  1293.52        2500.00        2866.27     
  1292.12        2500.00        2867.55     
  1290.73        2500.00        2868.88     
  1289.33        2500.00        2867.93     
  1287.93        2500.00        2880.75     
  1286.53        2500.00        2836.85     
  1285.13        2500.00        2863.11     
  1283.74        2500.00        2882.01     
  1282.34        2500.00        2871.87     
  1280.94        2500.00        2866.62     
  1279.54        2500.00        2896.85     
  1278.15        2500.00        2873.72     
  1276.75        2500.00        2842.84     
  1275.35        2500.00        2938.07     
  1273.95        2500.00        2880.54     
  1272.56        2500.00        2868.59     
  1271.16        2500.00        2867.33     
  1269.76        2500.00        2872.56     
  1268.36        2500.00        2850.47     
  1266.96        2500.00        2880.79     
  1265.57        2500.00        2817.02     
  1264.17        2500.00        2863.47     
  1262.77        2500.00        2840.35     
  1261.37        2500.00        2878.27     
  1259.98        2500.00        2862.65     
  1258.58        2500.00        2878.90     
  1257.18        2500.00        2850.48     
  1255.78        2500.00        3363.88     
  1254.38        2500.00        2602.00     
  1252.99        2500.00        2924.74     
  1251.59        2500.00        2743.53     
  1250.19        2500.00        2851.65     
  1248.79        2500.00        2895.98     
  1247.40        2500.00        2846.69     
  1246.00        2500.00        2906.61     
  1244.60        2500.00        3319.62     
  1243.20        2500.00        2889.64     
  1241.81        2500.00        2900.57     
  1240.41        2500.00        2844.11     
  1239.01        2500.00        2869.35     
  1237.61        2500.00        2859.80     
  1236.21        2500.00        2677.29     
  1234.82        2500.00        2936.73     
  1233.42        2500.00        2940.56     
  1232.02        2500.00        2855.39     
  1230.62        2500.00        2953.94     
  1229.23        2500.00        2807.49     
  1227.83        2500.00        2697.62     
  1226.43        2500.00        2952.46     
  1225.03        2500.00        2680.83     
  1223.64        2500.00        2702.34     
  1222.24        2500.00        2702.41     
  1220.84        2500.00        2702.59     
  1219.44        2500.00        2702.56     
  1218.04        2500.00        2702.73     
  1216.65        2500.00        2702.73     
  1215.25        2500.00        2702.76     
  1213.85        2500.00        2703.40     
  1212.45        2500.00        2702.89     
  1211.06        2500.00        2703.36     
  1209.66        2500.00        2703.08     
  1208.26        2500.00        2703.11     
  1206.86        2500.00        2703.17     
  1205.46        2500.00        2703.24     
  1204.07        2500.00        2703.28     
  1202.67        2500.00        2703.35     
  1201.27        2500.00        2703.89     
  1199.87        2500.00        2703.53     
  1198.48        2500.00        2703.59     
  1197.08        2500.00        2703.66     
  1195.68        2500.00        2703.70     
  1194.28        2500.00        2703.78     
  1192.89        2500.00        2703.88     
  1191.49        2500.00        2703.94     
  1190.09        2500.00        2704.02     
  1188.69        2500.00        2704.08     
  1187.29        2500.00        2704.12     
  1185.90        2500.00        2704.22     
  1184.50        2500.00        2704.53     
  1183.10        2500.00        2704.36     
  1181.70        2500.00        2704.43     
  1180.31        2500.00        2704.50     
  1178.91        2500.00        2704.57     
  1177.51        2500.00        2704.64     
  1176.11        2500.00        2704.68     
  1174.71        2500.00        2704.75     
  1173.32        2500.00        2704.82     
  1171.92        2500.00        2704.89     
  1170.52        2500.00        2704.96     
  1169.12        2500.00        2705.49     
  1167.73        2500.00        2705.10     
  1166.33        2500.00        2705.17     
  1164.93        2500.00        2705.27     
  1163.53        2500.00        2705.35     
  1162.14        2500.00        2705.38     
  1160.74        2500.00        2705.45     
  1159.34        2500.00        2705.55     
  1157.94        2500.00        2705.62     
  1156.54        2500.00        2706.11     
  1155.15        2500.00        2705.76     
  1153.75        2500.00        2705.83     
  1152.35        2500.00        2706.70     
  1150.95        2500.00        2706.58     
  1149.56        2500.00        2706.04     
  1148.16        2500.00        2706.85     
  1146.76        2500.00        2706.91     
  1145.36        2500.00        2706.99     
  1143.97        2500.00        2707.10     
  1142.57        2500.00        2706.88     
  1141.17        2500.00        2706.45     
  1139.77        2500.00        2706.52     
  1138.37        2500.00        2706.59     
  1136.98        2500.00        2706.66     
  1135.58        2500.00        2706.72     
  1134.18        2500.00        2707.07     
  1132.78        2500.00        2698.51     
  1131.39        2500.00        2698.63     
  1129.99        2500.00        2707.00     
  1128.59        2500.00        2707.49     
  1127.19        2500.00        2707.71     
  1125.79        2500.00        2707.21     
  1124.40        2500.00        2707.37     
  1123.00        2500.00        2707.43     
  1121.60        2500.00        2707.49     
  1120.20        2500.00        2698.79     
  1118.81        2500.00        2707.63     
  1117.41        2500.00        2699.21     
  1116.01        2500.00        2699.23     
  1114.61        2500.00        2699.24     
  1113.22        2500.00        2699.26     
  1111.82        2500.00        2699.29     
  1110.42        2500.00        2699.32     
  1109.02        2500.00        2699.35     
  1107.62        2500.00        2708.20     
  1106.23        2500.00        2699.27     
  1104.83        2500.00        2708.30     
  1103.43        2500.00        2708.56     
  1102.03        2500.00        2699.56     
  1100.64        2500.00        2699.60     
  1099.24        2500.00        2708.77     
  1097.84        2500.00        2699.72     
  1096.44        2500.00        2709.02     
  1095.04        2500.00        2708.99     
  1093.65        2500.00        2699.79     
  1092.25        2500.00        2699.85     
  1090.85        2500.00        2699.88     
  1089.45        2500.00        2700.10     
  1088.06        2500.00        2699.98     
  1086.66        2500.00        2699.88     
  1085.26        2500.00        2709.54     
  1083.86        2500.00        2700.05     
  1082.47        2500.00        2700.03     
  1081.07        2500.00        2700.09     
  1079.67        2500.00        2709.47     
  1078.27        2500.00        2709.90     
  1076.87        2500.00        2700.23     
  1075.48        2500.00        2700.41     
  1074.08        2500.00        2709.77     
  1072.68        2500.00        2700.42     
  1071.28        2500.00        2700.47     
  1069.89        2500.00        2698.24     
  1068.49        2500.00        2700.53     
  1067.09        2500.00        2710.08     
  1065.69        2500.00        2700.65     
  1064.30        2500.00        2710.24     
  1062.90        2500.00        2700.71     
  1061.50        2500.00        2700.87     
  1060.10        2500.00        2700.82     
  1058.70        2500.00        2700.88     
  1057.31        2500.00        2700.98     
  1055.91        2500.00        2710.61     
  1054.51        2500.00        2701.03     
  1053.11        2500.00        2710.76     
  1051.72        2500.00        2701.15     
  1050.32        2500.00        2701.22     
  1048.92        2500.00        2701.28     
  1047.52        2500.00        2701.31     
  1046.12        2500.00        2701.37     
  1044.73        2500.00        2701.43     
  1043.33        2500.00        2701.48     
  1041.93        2500.00        2701.55     
  1040.53        2500.00        2701.59     
  1039.14        2500.00        2701.71     
  1037.74        2500.00        2701.71     
  1036.34        2500.00        2701.77     
  1034.94        2500.00        2701.82     
  1033.55        2500.00        2701.88     
  1032.15        2500.00        2701.94     
  1030.75        2500.00        2701.99     
  1029.35        2500.00        2702.05     
  1027.95        2500.00        2702.11     
  1026.56        2500.00        2702.18     
  1025.16        2500.00        2702.22     
  1023.76        2500.00        2702.28     
  1022.36        2500.00        2702.34     
  1020.97        2500.00        2702.40     
  1019.57        2500.00        2702.45     
  1018.17        2500.00        2702.51     
  1016.77        2500.00        2702.57     
  1015.37        2500.00        2702.63     
  1013.98        2500.00        2702.69     
  1012.58        2500.00        2702.76     
  1011.18        2500.00        2702.80     
  1009.78        2500.00        2702.86     
  1008.39        2500.00        2702.98     
  1006.99        2500.00        2703.03     
  1005.59        2500.00        2703.04     
  1004.19        2500.00        2703.10     
  1002.80        2500.00        2703.16     
  1001.40        2500.00        2703.22     
  1000.00        2500.00        2703.27     
