|6.6.6
Archiving\03_Data\DeqfracLP/QFM_m4.25/K22/K22_6.tab                   
           1
T(K)    
  0.000000000000000E+000
  0.000000000000000E+000
           0
           3
T(K)           P(bar)         rho,kg/m3     
  1599.36        500.000        3205.59     
  1597.86        500.000        3216.53     
  1596.36        500.000        3206.02     
  1594.85        500.000        3206.66     
  1593.35        500.000        3223.87     
  1591.85        500.000        3207.82     
  1590.35        500.000        3208.13     
  1588.84        500.000        3208.02     
  1587.34        500.000        3208.41     
  1585.84        500.000        3209.26     
  1584.34        500.000        3209.11     
  1582.84        500.000        3209.56     
  1581.33        500.000        3209.48     
  1579.83        500.000        3210.76     
  1578.33        500.000        3211.43     
  1576.83        500.000        3210.86     
  1575.33        500.000        3213.18     
  1573.82        500.000        3212.24     
  1572.32        500.000        3211.67     
  1570.82        500.000        3212.29     
  1569.32        500.000        3213.74     
  1567.81        500.000        3214.08     
  1566.31        500.000        3214.06     
  1564.81        500.000        3215.20     
  1563.31        500.000        3215.48     
  1561.81        500.000        3215.20     
  1560.30        500.000        3216.01     
  1558.80        500.000        3215.09     
  1557.30        500.000        3230.37     
  1555.80        500.000        3216.14     
  1554.30        500.000        3216.66     
  1552.79        500.000        3217.05     
  1551.29        500.000        3217.15     
  1549.79        500.000        3218.57     
  1548.29        500.000        3217.49     
  1546.78        500.000        3218.90     
  1545.28        500.000        3218.68     
  1543.78        500.000        3219.44     
  1542.28        500.000        3219.48     
  1540.78        500.000        3221.30     
  1539.27        500.000        3223.66     
  1537.77        500.000        3220.91     
  1536.27        500.000        3223.37     
  1534.77        500.000        3221.33     
  1533.27        500.000        3237.73     
  1531.76        500.000        3222.76     
  1530.26        500.000        3222.56     
  1528.76        500.000        3223.29     
  1527.26        500.000        3223.42     
  1525.75        500.000        3224.21     
  1524.25        500.000        3224.42     
  1522.75        500.000        3224.66     
  1521.25        500.000        3224.95     
  1519.75        500.000        3225.90     
  1518.24        500.000        3226.28     
  1516.74        500.000        3226.28     
  1515.24        500.000        3226.39     
  1513.74        500.000        3227.40     
  1512.23        500.000        3227.68     
  1510.73        500.000        3227.88     
  1509.23        500.000        3228.39     
  1507.73        500.000        3229.07     
  1506.23        500.000        3229.44     
  1504.72        500.000        3220.55     
  1503.22        500.000        3218.31     
  1501.72        500.000        3215.90     
  1500.22        500.000        3214.50     
  1498.72        500.000        3216.09     
  1497.21        500.000        3216.68     
  1495.71        500.000        3219.43     
  1494.21        500.000        3218.70     
  1492.71        500.000        3219.19     
  1491.20        500.000        3218.07     
  1489.70        500.000        3220.44     
  1488.20        500.000        3221.40     
  1486.70        500.000        3221.16     
  1485.20        500.000        3222.69     
  1483.69        500.000        3223.33     
  1482.19        500.000        3224.19     
  1480.69        500.000        3217.31     
  1479.19        500.000        3216.94     
  1477.69        500.000        3218.24     
  1476.18        500.000        3219.33     
  1474.68        500.000        3220.20     
  1473.18        500.000        3221.05     
  1471.68        500.000        3222.38     
  1470.17        500.000        3223.16     
  1468.67        500.000        3224.34     
  1467.17        500.000        3225.18     
  1465.67        500.000        3226.28     
  1464.17        500.000        3227.38     
  1462.66        500.000        3228.30     
  1461.16        500.000        3229.42     
  1459.66        500.000        3230.06     
  1458.16        500.000        3231.58     
  1456.66        500.000        3232.51     
  1455.15        500.000        3233.53     
  1453.65        500.000        3234.20     
  1452.15        500.000        3234.81     
  1450.65        500.000        3236.38     
  1449.14        500.000        3237.43     
  1447.64        500.000        3238.38     
  1446.14        500.000        3239.34     
  1444.64        500.000        3240.52     
  1443.14        500.000        3173.55     
  1441.63        500.000        3072.68     
  1440.13        500.000        3073.75     
  1438.63        500.000        3075.01     
  1437.13        500.000        3076.02     
  1435.63        500.000        3077.36     
  1434.12        500.000        3078.56     
  1432.62        500.000        3079.61     
  1431.12        500.000        3080.77     
  1429.62        500.000        3081.93     
  1428.11        500.000        3083.15     
  1426.61        500.000        3084.16     
  1425.11        500.000        3085.39     
  1423.61        500.000        3086.46     
  1422.11        500.000        3087.37     
  1420.60        500.000        3088.77     
  1419.10        500.000        3089.62     
  1417.60        500.000        3090.81     
  1416.10        500.000        3091.94     
  1414.59        500.000        3093.06     
  1413.09        500.000        3094.27     
  1411.59        500.000        3095.29     
  1410.09        500.000        3096.41     
  1408.59        500.000        3097.44     
  1407.08        500.000        3098.50     
  1405.58        500.000        3099.69     
  1404.08        500.000        3100.84     
  1402.58        500.000        3101.96     
  1401.08        500.000        3103.22     
  1399.57        500.000        3104.09     
  1398.07        500.000        3105.14     
  1396.57        500.000        3106.00     
  1395.07        500.000        3107.35     
  1393.56        500.000        3108.32     
  1392.06        500.000        3109.22     
  1390.56        500.000        3110.58     
  1389.06        500.000        3111.54     
  1387.56        500.000        3112.59     
  1386.05        500.000        3113.87     
  1384.55        500.000        3114.80     
  1383.05        500.000        3115.86     
  1381.55        500.000        3117.02     
  1380.05        500.000        3118.17     
  1378.54        500.000        3119.46     
  1377.04        500.000        3120.21     
  1375.54        500.000        3121.51     
  1374.04        500.000        3122.67     
  1372.53        500.000        3123.54     
  1371.03        500.000        3124.89     
  1369.53        500.000        3125.75     
  1368.03        500.000        3126.94     
  1366.53        500.000        3128.13     
  1365.02        500.000        3129.13     
  1363.52        500.000        3130.23     
  1362.02        500.000        3131.46     
  1360.52        500.000        3132.38     
  1359.02        500.000        3133.45     
  1357.51        500.000        3134.67     
  1356.01        500.000        3135.50     
  1354.51        500.000        3136.96     
  1353.01        500.000        3137.69     
  1351.50        500.000        3139.00     
  1350.00        500.000        3140.36     
  1348.50        500.000        3141.32     
  1347.00        500.000        3142.20     
  1345.50        500.000        3143.20     
  1343.99        500.000        3144.38     
  1342.49        500.000        3145.68     
  1340.99        500.000        3146.70     
  1339.49        500.000        3147.87     
  1337.98        500.000        3148.78     
  1336.48        500.000        3149.89     
  1334.98        500.000        3150.96     
  1333.48        500.000        3152.03     
  1331.98        500.000        3153.08     
  1330.47        500.000        3154.12     
  1328.97        500.000        3155.30     
  1327.47        500.000        3156.43     
  1325.97        500.000        3157.23     
  1324.47        500.000        3158.37     
  1322.96        500.000        3159.52     
  1321.46        500.000        3160.63     
  1319.96        500.000        3131.44     
  1318.46        500.000        3191.94     
  1316.95        500.000        3163.68     
  1315.45        500.000        3164.94     
  1313.95        500.000        3159.54     
  1312.45        500.000        3173.44     
  1310.95        500.000        3168.02     
  1309.44        500.000        3168.89     
  1307.94        500.000        3170.21     
  1306.44        500.000        3170.95     
  1304.94        500.000        3161.01     
  1303.44        500.000        3105.27     
  1301.93        500.000        3120.65     
  1300.43        500.000        3275.05     
  1298.93        500.000        3176.28     
  1297.43        500.000        3177.19     
  1295.92        500.000        3154.47     
  1294.42        500.000        3145.06     
  1292.92        500.000        3198.38     
  1291.42        500.000        3236.91     
  1289.92        500.000        3180.67     
  1288.41        500.000        3183.25     
  1286.91        500.000        3183.97     
  1285.41        500.000        3304.02     
  1283.91        500.000        3179.14     
  1282.41        500.000        3203.07     
  1280.90        500.000        3187.11     
  1279.40        500.000        3188.48     
  1277.90        500.000        3131.18     
  1276.40        500.000        3218.28     
  1274.89        500.000        3190.89     
  1273.39        500.000        3191.68     
  1271.89        500.000        2746.59     
  1270.39        500.000        2738.53     
  1268.89        500.000        2744.83     
  1267.38        500.000        2737.52     
  1265.88        500.000        2748.24     
  1264.38        500.000        2733.14     
  1262.88        500.000        2736.52     
  1261.38        500.000        2740.69     
  1259.87        500.000        2755.50     
  1258.37        500.000        2742.19     
  1256.87        500.000        2743.14     
  1255.37        500.000        2732.48     
  1253.86        500.000        2751.86     
  1252.36        500.000        2745.37     
  1250.86        500.000        2808.37     
  1249.36        500.000        2693.75     
  1247.86        500.000        2747.20     
  1246.35        500.000        2747.95     
  1244.85        500.000        2748.68     
  1243.35        500.000        2749.13     
  1241.85        500.000        2750.45     
  1240.34        500.000        2751.29     
  1238.84        500.000        2751.84     
  1237.34        500.000        2752.42     
  1235.84        500.000        2753.39     
  1234.34        500.000        2754.00     
  1232.83        500.000        2754.58     
  1231.33        500.000        2755.02     
  1229.83        500.000        2755.63     
  1228.33        500.000        2756.67     
  1226.83        500.000        2757.42     
  1225.32        500.000        2764.32     
  1223.82        500.000        2766.10     
  1222.32        500.000        2765.18     
  1220.82        500.000        2765.79     
  1219.31        500.000        2764.59     
  1217.81        500.000        2764.14     
  1216.31        500.000        2763.67     
  1214.81        500.000        2763.19     
  1213.31        500.000        2763.09     
  1211.80        500.000        2762.62     
  1210.30        500.000        2762.32     
  1208.80        500.000        2761.71     
  1207.30        500.000        2759.49     
  1205.80        500.000        2761.11     
  1204.29        500.000        2760.73     
  1202.79        500.000        2760.30     
  1201.29        500.000        2760.41     
  1199.79        500.000        2759.67     
  1198.28        500.000        2759.60     
  1196.78        500.000        2758.40     
  1195.28        500.000        2759.25     
  1193.78        500.000        2758.04     
  1192.28        500.000        2622.47     
  1190.77        500.000        2622.06     
  1189.27        500.000        2622.13     
  1187.77        500.000        2622.19     
  1186.27        500.000        2622.26     
  1184.77        500.000        2622.32     
  1183.26        500.000        2622.39     
  1181.76        500.000        2622.45     
  1180.26        500.000        2622.52     
  1178.76        500.000        2622.58     
  1177.25        500.000        2622.65     
  1175.75        500.000        2622.71     
  1174.25        500.000        2622.78     
  1172.75        500.000        2622.85     
  1171.25        500.000        2622.91     
  1169.74        500.000        2622.98     
  1168.24        500.000        2623.04     
  1166.74        500.000        2623.11     
  1165.24        500.000        2623.17     
  1163.73        500.000        2623.24     
  1162.23        500.000        2623.30     
  1160.73        500.000        2623.37     
  1159.23        500.000        2623.43     
  1157.73        500.000        2623.50     
  1156.22        500.000        2623.57     
  1154.72        500.000        2623.63     
  1153.22        500.000        2623.70     
  1151.72        500.000        2623.76     
  1150.22        500.000        2623.83     
  1148.71        500.000        2623.89     
  1147.21        500.000        2623.96     
  1145.71        500.000        2624.02     
  1144.21        500.000        2624.09     
  1142.70        500.000        2624.15     
  1141.20        500.000        2624.22     
  1139.70        500.000        2624.28     
  1138.20        500.000        2624.34     
  1136.70        500.000        2624.41     
  1135.19        500.000        2624.48     
  1133.69        500.000        2624.54     
  1132.19        500.000        2624.60     
  1130.69        500.000        2624.67     
  1129.19        500.000        2624.73     
  1127.68        500.000        2624.79     
  1126.18        500.000        2624.86     
  1124.68        500.000        2624.92     
  1123.18        500.000        2624.98     
  1121.67        500.000        2625.04     
  1120.17        500.000        2625.10     
  1118.67        500.000        2625.16     
  1117.17        500.000        2625.23     
  1115.67        500.000        2625.31     
  1114.16        500.000        2625.37     
  1112.66        500.000        2625.23     
  1111.16        500.000        2625.47     
  1109.66        500.000        2625.53     
  1108.16        500.000        2625.64     
  1106.65        500.000        2625.65     
  1105.15        500.000        2625.77     
  1103.65        500.000        2625.77     
  1102.15        500.000        2625.83     
  1100.64        500.000        2625.96     
  1099.14        500.000        2625.95     
  1097.64        500.000        2626.09     
  1096.14        500.000        2626.10     
  1094.64        500.000        2626.16     
  1093.13        500.000        2626.23     
  1091.63        500.000        2626.30     
  1090.13        500.000        2626.35     
  1088.63        500.000        2626.41     
  1087.13        500.000        2626.47     
  1085.62        500.000        2626.54     
  1084.12        500.000        2626.60     
  1082.62        500.000        2626.66     
  1081.12        500.000        2626.72     
  1079.61        500.000        2626.76     
  1078.11        500.000        2626.85     
  1076.61        500.000        2626.90     
  1075.11        500.000        2626.92     
  1073.61        500.000        2626.99     
  1072.10        500.000        2627.04     
  1070.60        500.000        2627.10     
  1069.10        500.000        2627.21     
  1067.60        500.000        2627.29     
  1066.09        500.000        2627.29     
  1064.59        500.000        2627.46     
  1063.09        500.000        2627.54     
  1061.59        500.000        2627.60     
  1060.09        500.000        2627.66     
  1058.58        500.000        2627.72     
  1057.08        500.000        2627.80     
  1055.58        500.000        2627.86     
  1054.08        500.000        2627.92     
  1052.58        500.000        2627.98     
  1051.07        500.000        2628.04     
  1049.57        500.000        2628.11     
  1048.07        500.000        2628.17     
  1046.57        500.000        2628.23     
  1045.06        500.000        2628.28     
  1043.56        500.000        2628.19     
  1042.06        500.000        2628.41     
  1040.56        500.000        2628.40     
  1039.06        500.000        2628.44     
  1037.55        500.000        2628.50     
  1036.05        500.000        2628.56     
  1034.55        500.000        2628.63     
  1033.05        500.000        2628.69     
  1031.55        500.000        2628.75     
  1030.04        500.000        2628.82     
  1028.54        500.000        2628.88     
  1027.04        500.000        2628.94     
  1025.54        500.000        2629.00     
  1024.03        500.000        2629.06     
  1022.53        500.000        2629.13     
  1021.03        500.000        2629.19     
  1019.53        500.000        2629.25     
  1018.03        500.000        2629.35     
  1016.52        500.000        2629.41     
  1015.02        500.000        2629.47     
  1013.52        500.000        2629.53     
  1012.02        500.000        2629.59     
  1010.52        500.000        2629.65     
  1009.01        500.000        2629.71     
  1007.51        500.000        2629.77     
  1006.01        500.000        2629.83     
  1004.51        500.000        2629.89     
  1003.00        500.000        2629.95     
  1001.50        500.000        2630.01     
  1000.00        500.000        2630.07     
