|6.6.6
Archiving\03_Data\eqfrac/QFM_m5/Y98/Y98_6.tab                             
           1
T(K)    
  0.000000000000000E+000
  0.000000000000000E+000
           0
           3
T(K)           P(bar)         rho,kg/m3     
  1503.21        2500.00        3299.13     
  1501.95        2500.00        3291.28     
  1500.69        2500.00        3291.55     
  1499.43        2500.00        3292.00     
  1498.17        2500.00        3292.44     
  1496.90        2500.00        3292.87     
  1495.64        2500.00        3293.28     
  1494.38        2500.00        3293.72     
  1493.12        2500.00        3294.14     
  1491.86        2500.00        3294.60     
  1490.60        2500.00        3294.95     
  1489.34        2500.00        3295.46     
  1488.08        2500.00        3295.97     
  1486.81        2500.00        3296.24     
  1485.55        2500.00        3296.78     
  1484.29        2500.00        3297.61     
  1483.03        2500.00        3298.39     
  1481.77        2500.00        3286.00     
  1480.51        2500.00        3298.50     
  1479.25        2500.00        3298.95     
  1477.99        2500.00        3299.37     
  1476.73        2500.00        3299.87     
  1475.46        2500.00        3300.22     
  1474.20        2500.00        3300.69     
  1472.94        2500.00        3301.56     
  1471.68        2500.00        3301.37     
  1470.42        2500.00        3302.07     
  1469.16        2500.00        3302.53     
  1467.90        2500.00        3259.63     
  1466.64        2500.00        3149.98     
  1465.37        2500.00        3149.93     
  1464.11        2500.00        3149.95     
  1462.85        2500.00        3149.98     
  1461.59        2500.00        3149.93     
  1460.33        2500.00        3149.96     
  1459.07        2500.00        3150.02     
  1457.81        2500.00        3150.00     
  1456.55        2500.00        3149.98     
  1455.29        2500.00        3150.09     
  1454.02        2500.00        3150.07     
  1452.76        2500.00        3150.12     
  1451.50        2500.00        3150.15     
  1450.24        2500.00        3150.19     
  1448.98        2500.00        3150.19     
  1447.72        2500.00        3150.30     
  1446.46        2500.00        3150.33     
  1445.20        2500.00        3150.38     
  1443.93        2500.00        3150.42     
  1442.67        2500.00        3150.43     
  1441.41        2500.00        3150.44     
  1440.15        2500.00        3150.55     
  1438.89        2500.00        3150.59     
  1437.63        2500.00        3150.66     
  1436.37        2500.00        3150.75     
  1435.11        2500.00        3150.77     
  1433.85        2500.00        3150.75     
  1432.58        2500.00        3150.71     
  1431.32        2500.00        3150.82     
  1430.06        2500.00        3150.93     
  1428.80        2500.00        3150.95     
  1427.54        2500.00        3150.99     
  1426.28        2500.00        3151.06     
  1425.02        2500.00        3151.12     
  1423.76        2500.00        3151.16     
  1422.49        2500.00        3151.21     
  1421.23        2500.00        3151.27     
  1419.97        2500.00        3151.30     
  1418.71        2500.00        3151.36     
  1417.45        2500.00        3151.35     
  1416.19        2500.00        3151.45     
  1414.93        2500.00        3151.47     
  1413.67        2500.00        3151.48     
  1412.41        2500.00        3151.56     
  1411.14        2500.00        3151.61     
  1409.88        2500.00        3151.60     
  1408.62        2500.00        3151.65     
  1407.36        2500.00        3151.66     
  1406.10        2500.00        3151.74     
  1404.84        2500.00        3151.77     
  1403.58        2500.00        3151.83     
  1402.32        2500.00        3151.86     
  1401.05        2500.00        3151.80     
  1399.79        2500.00        3151.90     
  1398.53        2500.00        3151.91     
  1397.27        2500.00        3151.95     
  1396.01        2500.00        3152.00     
  1394.75        2500.00        3151.96     
  1393.49        2500.00        3151.98     
  1392.23        2500.00        3151.99     
  1390.97        2500.00        3152.06     
  1389.70        2500.00        3152.06     
  1388.44        2500.00        3152.04     
  1387.18        2500.00        3151.93     
  1385.92        2500.00        3152.04     
  1384.66        2500.00        3152.06     
  1383.40        2500.00        3152.00     
  1382.14        2500.00        3152.08     
  1380.88        2500.00        3152.00     
  1379.61        2500.00        3151.98     
  1378.35        2500.00        3152.02     
  1377.09        2500.00        3151.91     
  1375.83        2500.00        3151.92     
  1374.57        2500.00        3151.87     
  1373.31        2500.00        3151.86     
  1372.05        2500.00        3151.83     
  1370.79        2500.00        3151.63     
  1369.53        2500.00        3151.74     
  1368.26        2500.00        3151.65     
  1367.00        2500.00        3151.63     
  1365.74        2500.00        3151.65     
  1364.48        2500.00        3151.45     
  1363.22        2500.00        3151.47     
  1361.96        2500.00        3151.33     
  1360.70        2500.00        3151.33     
  1359.44        2500.00        3151.18     
  1358.17        2500.00        3151.10     
  1356.91        2500.00        3151.04     
  1355.65        2500.00        3150.87     
  1354.39        2500.00        3150.77     
  1353.13        2500.00        3150.69     
  1351.87        2500.00        3150.57     
  1350.61        2500.00        3150.42     
  1349.35        2500.00        3150.24     
  1348.09        2500.00        3150.21     
  1346.82        2500.00        3150.03     
  1345.56        2500.00        3149.86     
  1344.30        2500.00        3149.80     
  1343.04        2500.00        3149.57     
  1341.78        2500.00        3149.40     
  1340.52        2500.00        3149.19     
  1339.26        2500.00        3149.02     
  1338.00        2500.00        3148.83     
  1336.73        2500.00        3148.67     
  1335.47        2500.00        3148.43     
  1334.21        2500.00        3148.13     
  1332.95        2500.00        3147.96     
  1331.69        2500.00        3147.75     
  1330.43        2500.00        3147.53     
  1329.17        2500.00        3147.29     
  1327.91        2500.00        3146.94     
  1326.65        2500.00        3146.79     
  1325.38        2500.00        3146.48     
  1324.12        2500.00        3146.17     
  1322.86        2500.00        3145.80     
  1321.60        2500.00        3145.61     
  1320.34        2500.00        2764.30     
  1319.08        2500.00        2758.92     
  1317.82        2500.00        2759.08     
  1316.56        2500.00        2759.20     
  1315.29        2500.00        2759.33     
  1314.03        2500.00        2759.43     
  1312.77        2500.00        2759.50     
  1311.51        2500.00        2759.62     
  1310.25        2500.00        2759.72     
  1308.99        2500.00        2759.83     
  1307.73        2500.00        2759.92     
  1306.47        2500.00        2764.94     
  1305.21        2500.00        2781.61     
  1303.94        2500.00        2780.88     
  1302.68        2500.00        2771.08     
  1301.42        2500.00        2766.48     
  1300.16        2500.00        2770.24     
  1298.90        2500.00        2769.60     
  1297.64        2500.00        2767.01     
  1296.38        2500.00        2764.70     
  1295.12        2500.00        2764.93     
  1293.85        2500.00        2986.55     
  1292.59        2500.00        2754.14     
  1291.33        2500.00        2724.41     
  1290.07        2500.00        2749.38     
  1288.81        2500.00        2750.77     
  1287.55        2500.00        2770.83     
  1286.29        2500.00        2759.59     
  1285.03        2500.00        2836.29     
  1283.77        2500.00        2779.36     
  1282.50        2500.00        2773.77     
  1281.24        2500.00        2856.63     
  1279.98        2500.00        2769.64     
  1278.72        2500.00        2816.11     
  1277.46        2500.00        2677.42     
  1276.20        2500.00        2892.34     
  1274.94        2500.00        2772.83     
  1273.68        2500.00        2812.41     
  1272.41        2500.00        2808.50     
  1271.15        2500.00        2805.46     
  1269.89        2500.00        2813.76     
  1268.63        2500.00        2763.28     
  1267.37        2500.00        2776.88     
  1266.11        2500.00        2758.88     
  1264.85        2500.00        2694.40     
  1263.59        2500.00        2754.32     
  1262.33        2500.00        2755.91     
  1261.06        2500.00        2641.48     
  1259.80        2500.00        3839.96     
  1258.54        2500.00        2722.31     
  1257.28        2500.00        2780.12     
  1256.02        2500.00        2743.93     
  1254.76        2500.00        2757.78     
  1253.50        2500.00        2777.72     
  1252.24        2500.00        2700.83     
  1250.97        2500.00        2745.66     
  1249.71        2500.00        2736.56     
  1248.45        2500.00        2730.25     
  1247.19        2500.00        2769.08     
  1245.93        2500.00        2696.06     
  1244.67        2500.00        2774.77     
  1243.41        2500.00        2713.98     
  1242.15        2500.00        2618.54     
  1240.88        2500.00        2795.61     
  1239.62        2500.00        2735.42     
  1238.36        2500.00        2625.78     
  1237.10        2500.00        2629.61     
  1235.84        2500.00        2633.82     
  1234.58        2500.00        2637.90     
  1233.32        2500.00        2647.77     
  1232.06        2500.00        2646.51     
  1230.80        2500.00        2647.82     
  1229.53        2500.00        2647.35     
  1228.27        2500.00        2647.20     
  1227.01        2500.00        2648.19     
  1225.75        2500.00        2649.24     
  1224.49        2500.00        2648.81     
  1223.23        2500.00        2649.58     
  1221.97        2500.00        2649.73     
  1220.71        2500.00        2652.14     
  1219.44        2500.00        2651.92     
  1218.18        2500.00        2652.33     
  1216.92        2500.00        2652.31     
  1215.66        2500.00        2654.45     
  1214.40        2500.00        2653.98     
  1213.14        2500.00        2653.92     
  1211.88        2500.00        2653.87     
  1210.62        2500.00        2653.32     
  1209.36        2500.00        2653.70     
  1208.09        2500.00        2654.31     
  1206.83        2500.00        2654.89     
  1205.57        2500.00        2654.94     
  1204.31        2500.00        2655.08     
  1203.05        2500.00        2655.18     
  1201.79        2500.00        2655.08     
  1200.53        2500.00        2655.19     
  1199.27        2500.00        2655.26     
  1198.00        2500.00        2655.25     
  1196.74        2500.00        2655.30     
  1195.48        2500.00        2655.38     
  1194.22        2500.00        2655.06     
  1192.96        2500.00        2655.55     
  1191.70        2500.00        2655.63     
  1190.44        2500.00        2655.69     
  1189.18        2500.00        2655.89     
  1187.92        2500.00        2655.93     
  1186.65        2500.00        2655.90     
  1185.39        2500.00        2655.96     
  1184.13        2500.00        2656.06     
  1182.87        2500.00        2656.12     
  1181.61        2500.00        2656.15     
  1180.35        2500.00        2656.21     
  1179.09        2500.00        2656.27     
  1177.83        2500.00        2656.33     
  1176.56        2500.00        2655.96     
  1175.30        2500.00        2656.46     
  1174.04        2500.00        2656.52     
  1172.78        2500.00        2656.58     
  1171.52        2500.00        2656.64     
  1170.26        2500.00        2656.70     
  1169.00        2500.00        2656.76     
  1167.74        2500.00        2656.83     
  1166.48        2500.00        2656.89     
  1165.21        2500.00        2656.95     
  1163.95        2500.00        2657.01     
  1162.69        2500.00        2657.07     
  1161.43        2500.00        2657.13     
  1160.17        2500.00        2657.19     
  1158.91        2500.00        2657.25     
  1157.65        2500.00        2657.32     
  1156.39        2500.00        2657.38     
  1155.12        2500.00        2657.44     
  1153.86        2500.00        2657.50     
  1152.60        2500.00        2657.56     
  1151.34        2500.00        2657.62     
  1150.08        2500.00        2657.68     
  1148.82        2500.00        2657.74     
  1147.56        2500.00        2657.81     
  1146.30        2500.00        2657.87     
  1145.04        2500.00        2657.93     
  1143.77        2500.00        2657.99     
  1142.51        2500.00        2658.05     
  1141.25        2500.00        2658.11     
  1139.99        2500.00        2657.46     
  1138.73        2500.00        2657.52     
  1137.47        2500.00        2657.58     
  1136.21        2500.00        2658.36     
  1134.95        2500.00        2658.42     
  1133.68        2500.00        2658.61     
  1132.42        2500.00        2658.54     
  1131.16        2500.00        2658.60     
  1129.90        2500.00        2658.76     
  1128.64        2500.00        2658.74     
  1127.38        2500.00        2658.78     
  1126.12        2500.00        2658.84     
  1124.86        2500.00        2658.90     
  1123.60        2500.00        2659.09     
  1122.33        2500.00        2659.17     
  1121.07        2500.00        2659.27     
  1119.81        2500.00        2659.15     
  1118.55        2500.00        2659.21     
  1117.29        2500.00        2659.27     
  1116.03        2500.00        2659.33     
  1114.77        2500.00        2659.39     
  1113.51        2500.00        2659.45     
  1112.24        2500.00        2659.51     
  1110.98        2500.00        2659.57     
  1109.72        2500.00        2659.64     
  1108.46        2500.00        2659.70     
  1107.20        2500.00        2659.76     
  1105.94        2500.00        2659.82     
  1104.68        2500.00        2659.88     
  1103.42        2500.00        2659.94     
  1102.16        2500.00        2660.00     
  1100.89        2500.00        2660.06     
  1099.63        2500.00        2660.13     
  1098.37        2500.00        2660.19     
  1097.11        2500.00        2660.25     
  1095.85        2500.00        2660.31     
  1094.59        2500.00        2660.37     
  1093.33        2500.00        2660.43     
  1092.07        2500.00        2660.49     
  1090.80        2500.00        2660.55     
  1089.54        2500.00        2660.61     
  1088.28        2500.00        2660.67     
  1087.02        2500.00        2660.73     
  1085.76        2500.00        2660.80     
  1084.50        2500.00        2660.86     
  1083.24        2500.00        2660.92     
  1081.98        2500.00        2660.98     
  1080.72        2500.00        2661.04     
  1079.45        2500.00        2661.10     
  1078.19        2500.00        2661.16     
  1076.93        2500.00        2661.22     
  1075.67        2500.00        2661.28     
  1074.41        2500.00        2661.34     
  1073.15        2500.00        2661.40     
  1071.89        2500.00        2661.46     
  1070.63        2500.00        2661.53     
  1069.36        2500.00        2661.25     
  1068.10        2500.00        2661.65     
  1066.84        2500.00        2661.71     
  1065.58        2500.00        2661.43     
  1064.32        2500.00        2661.83     
  1063.06        2500.00        2661.89     
  1061.80        2500.00        2661.95     
  1060.54        2500.00        2661.68     
  1059.28        2500.00        2662.07     
  1058.01        2500.00        2662.13     
  1056.75        2500.00        2662.20     
  1055.49        2500.00        2661.93     
  1054.23        2500.00        2662.32     
  1052.97        2500.00        2662.39     
  1051.71        2500.00        2662.44     
  1050.45        2500.00        2662.18     
  1049.19        2500.00        2662.57     
  1047.92        2500.00        2662.63     
  1046.66        2500.00        2662.35     
  1045.40        2500.00        2662.75     
  1044.14        2500.00        2662.81     
  1042.88        2500.00        2662.87     
  1041.62        2500.00        2662.93     
  1040.36        2500.00        2662.99     
  1039.10        2500.00        2663.05     
  1037.84        2500.00        2662.35     
  1036.57        2500.00        2662.42     
  1035.31        2500.00        2662.48     
  1034.05        2500.00        2662.95     
  1032.79        2500.00        2663.02     
  1031.53        2500.00        2663.08     
  1030.27        2500.00        2663.47     
  1029.01        2500.00        2663.53     
  1027.75        2500.00        2663.59     
  1026.48        2500.00        2663.65     
  1025.22        2500.00        2663.71     
  1023.96        2500.00        2663.77     
  1022.70        2500.00        2663.83     
  1021.44        2500.00        2663.89     
  1020.18        2500.00        2663.95     
  1018.92        2500.00        2664.02     
  1017.66        2500.00        2664.08     
  1016.40        2500.00        2664.12     
  1015.13        2500.00        2664.18     
  1013.87        2500.00        2664.24     
  1012.61        2500.00        2664.30     
  1011.35        2500.00        2664.36     
  1010.09        2500.00        2664.42     
  1008.83        2500.00        2664.48     
  1007.57        2500.00        2664.54     
  1006.31        2500.00        2664.60     
  1005.04        2500.00        2664.66     
  1003.78        2500.00        2664.74     
  1002.52        2500.00        2664.78     
  1001.26        2500.00        2664.53     
  1000.00        2500.00        2664.92     
