|6.6.6
Archiving\03_Data\fracLP/QFM_m1.75/YM20/YM20_6.tab                      
           1
T(K)    
  0.000000000000000E+000
  0.000000000000000E+000
           0
           3
T(K)           P(bar)         rho,kg/m3     
  2000.00        500.000        5145.98     
  1997.49        500.000        5146.73     
  1994.99        500.000        5147.49     
  1992.48        500.000        5148.24     
  1989.97        500.000        5149.00     
  1987.47        500.000        5149.75     
  1984.96        500.000        5150.50     
  1982.46        500.000        5151.26     
  1979.95        500.000        5152.01     
  1977.44        500.000        5152.76     
  1974.94        500.000        5153.51     
  1972.43        500.000        5154.26     
  1969.92        500.000        5155.01     
  1967.42        500.000        5155.76     
  1964.91        500.000        5156.51     
  1962.41        500.000        5157.26     
  1959.90        500.000        5158.01     
  1957.39        500.000        5158.76     
  1954.89        500.000        5159.51     
  1952.38        500.000        5160.26     
  1949.87        500.000        5161.00     
  1947.37        500.000        5161.75     
  1944.86        500.000        5162.50     
  1942.36        500.000        5163.24     
  1939.85        500.000        5163.99     
  1937.34        500.000        5164.74     
  1934.84        500.000        5165.48     
  1932.33        500.000        5166.22     
  1929.82        500.000        5166.97     
  1927.32        500.000        5167.71     
  1924.81        500.000        5168.46     
  1922.31        500.000        5169.20     
  1919.80        500.000        5169.94     
  1917.29        500.000        5170.68     
  1914.79        500.000        5171.42     
  1912.28        500.000        5172.17     
  1909.77        500.000        5172.91     
  1907.27        500.000        4298.10     
  1904.76        500.000        2895.84     
  1902.26        500.000        2896.41     
  1899.75        500.000        2896.98     
  1897.24        500.000        2897.55     
  1894.74        500.000        2898.12     
  1892.23        500.000        2898.69     
  1889.72        500.000        2899.26     
  1887.22        500.000        3152.23     
  1884.71        500.000        2900.40     
  1882.21        500.000        3149.07     
  1879.70        500.000        3150.59     
  1877.19        500.000        3152.25     
  1874.69        500.000        3153.67     
  1872.18        500.000        3155.12     
  1869.67        500.000        3156.52     
  1867.17        500.000        3157.92     
  1864.66        500.000        3163.46     
  1862.16        500.000        3182.76     
  1859.65        500.000        3185.15     
  1857.14        500.000        3186.94     
  1854.64        500.000        3188.51     
  1852.13        500.000        3190.10     
  1849.62        500.000        3191.93     
  1847.12        500.000        3193.26     
  1844.61        500.000        3194.63     
  1842.11        500.000        3196.32     
  1839.60        500.000        3197.99     
  1837.09        500.000        3199.56     
  1834.59        500.000        3201.04     
  1832.08        500.000        3202.81     
  1829.57        500.000        3204.30     
  1827.07        500.000        3206.07     
  1824.56        500.000        3208.73     
  1822.06        500.000        3209.10     
  1819.55        500.000        3210.76     
  1817.04        500.000        3212.61     
  1814.54        500.000        3213.92     
  1812.03        500.000        3215.61     
  1809.52        500.000        3217.00     
  1807.02        500.000        3218.84     
  1804.51        500.000        3220.84     
  1802.01        500.000        3222.17     
  1799.50        500.000        3223.43     
  1796.99        500.000        4091.22     
  1794.49        500.000        3222.43     
  1791.98        500.000        3228.53     
  1789.47        500.000        3230.02     
  1786.97        500.000        3231.80     
  1784.46        500.000        3233.53     
  1781.95        500.000        3234.63     
  1779.45        500.000        3236.61     
  1776.94        500.000        3238.83     
  1774.44        500.000        3239.94     
  1771.93        500.000        3241.57     
  1769.42        500.000        3242.87     
  1766.92        500.000        3244.80     
  1764.41        500.000        3246.40     
  1761.90        500.000        3248.03     
  1759.40        500.000        3250.20     
  1756.89        500.000        3251.03     
  1754.39        500.000        3252.91     
  1751.88        500.000        3254.05     
  1749.37        500.000        3235.41     
  1746.87        500.000        3257.62     
  1744.36        500.000        3249.63     
  1741.85        500.000        3262.78     
  1739.35        500.000        3262.64     
  1736.84        500.000        3264.42     
  1734.34        500.000        3265.70     
  1731.83        500.000        3267.02     
  1729.32        500.000        3269.23     
  1726.82        500.000        3271.04     
  1724.31        500.000        3271.60     
  1721.80        500.000        3273.89     
  1719.30        500.000        3274.30     
  1716.79        500.000        3276.80     
  1714.29        500.000        3279.00     
  1711.78        500.000        3280.42     
  1709.27        500.000        3281.97     
  1706.77        500.000        3284.55     
  1704.26        500.000        3284.74     
  1701.75        500.000        3286.69     
  1699.25        500.000        3288.49     
  1696.74        500.000        3289.68     
  1694.24        500.000        3291.21     
  1691.73        500.000        3292.99     
  1689.22        500.000        3294.84     
  1686.72        500.000        3296.42     
  1684.21        500.000        3297.54     
  1681.70        500.000        3299.06     
  1679.20        500.000        3301.78     
  1676.69        500.000        3302.09     
  1674.19        500.000        3304.37     
  1671.68        500.000        3305.89     
  1669.17        500.000        3309.20     
  1666.67        500.000        3308.23     
  1664.16        500.000        3309.73     
  1661.65        500.000        3311.26     
  1659.15        500.000        3313.77     
  1656.64        500.000        3314.73     
  1654.14        500.000        3316.36     
  1651.63        500.000        3318.72     
  1649.12        500.000        3319.54     
  1646.62        500.000        3320.42     
  1644.11        500.000        3323.29     
  1641.60        500.000        3324.34     
  1639.10        500.000        3327.96     
  1636.59        500.000        3326.57     
  1634.09        500.000        3328.64     
  1631.58        500.000        3330.35     
  1629.07        500.000        3331.70     
  1626.57        500.000        3333.41     
  1624.06        500.000        3334.73     
  1621.55        500.000        3336.17     
  1619.05        500.000        3337.90     
  1616.54        500.000        3338.97     
  1614.04        500.000        3340.83     
  1611.53        500.000        3342.81     
  1609.02        500.000        3344.07     
  1606.52        500.000        3345.16     
  1604.01        500.000        3345.95     
  1601.50        500.000        3348.00     
  1599.00        500.000        3348.88     
  1596.49        500.000        3350.39     
  1593.98        500.000        3351.39     
  1591.48        500.000        3353.61     
  1588.97        500.000        3355.16     
  1586.47        500.000        3265.12     
  1583.96        500.000        3249.26     
  1581.45        500.000        3248.98     
  1578.95        500.000        3250.25     
  1576.44        500.000        3251.22     
  1573.93        500.000        3251.97     
  1571.43        500.000        3252.64     
  1568.92        500.000        3253.42     
  1566.42        500.000        3254.75     
  1563.91        500.000        3255.45     
  1561.40        500.000        3256.02     
  1558.90        500.000        3257.27     
  1556.39        500.000        3257.55     
  1553.88        500.000        3256.99     
  1551.38        500.000        3261.22     
  1548.87        500.000        3260.32     
  1546.37        500.000        3260.60     
  1543.86        500.000        3261.80     
  1541.35        500.000        3262.65     
  1538.85        500.000        3263.01     
  1536.34        500.000        3262.49     
  1533.83        500.000        3264.72     
  1531.33        500.000        3265.75     
  1528.82        500.000        3266.57     
  1526.32        500.000        3266.80     
  1523.81        500.000        3267.73     
  1521.30        500.000        3268.85     
  1518.80        500.000        3270.62     
  1516.29        500.000        3268.10     
  1513.78        500.000        3271.38     
  1511.28        500.000        3271.61     
  1508.77        500.000        3272.04     
  1506.27        500.000        3272.40     
  1503.76        500.000        3279.39     
  1501.25        500.000        3282.05     
  1498.75        500.000        3276.66     
  1496.24        500.000        3276.29     
  1493.73        500.000        3277.12     
  1491.23        500.000        3278.17     
  1488.72        500.000        3279.21     
  1486.22        500.000        3279.83     
  1483.71        500.000        3281.06     
  1481.20        500.000        3282.16     
  1478.70        500.000        3283.17     
  1476.19        500.000        3284.40     
  1473.68        500.000        3285.19     
  1471.18        500.000        3286.19     
  1468.67        500.000        3287.41     
  1466.17        500.000        3288.73     
  1463.66        500.000        3278.65     
  1461.15        500.000        3278.54     
  1458.65        500.000        3278.49     
  1456.14        500.000        3279.78     
  1453.63        500.000        3281.34     
  1451.13        500.000        3283.91     
  1448.62        500.000        3284.73     
  1446.12        500.000        3285.87     
  1443.61        500.000        3287.41     
  1441.10        500.000        3286.91     
  1438.60        500.000        3290.93     
  1436.09        500.000        3286.44     
  1433.58        500.000        3272.18     
  1431.08        500.000        3274.27     
  1428.57        500.000        3276.33     
  1426.07        500.000        3278.38     
  1423.56        500.000        3280.46     
  1421.05        500.000        3282.34     
  1418.55        500.000        3284.59     
  1416.04        500.000        3237.89     
  1413.53        500.000        3106.32     
  1411.03        500.000        3108.59     
  1408.52        500.000        3110.98     
  1406.02        500.000        3113.30     
  1403.51        500.000        3115.50     
  1401.00        500.000        3117.94     
  1398.50        500.000        3120.47     
  1395.99        500.000        3122.44     
  1393.48        500.000        3124.85     
  1390.98        500.000        3127.29     
  1388.47        500.000        3129.46     
  1385.96        500.000        3131.87     
  1383.46        500.000        3134.38     
  1380.95        500.000        3136.57     
  1378.45        500.000        3139.01     
  1375.94        500.000        3141.15     
  1373.43        500.000        3143.73     
  1370.93        500.000        3146.03     
  1368.42        500.000        3148.33     
  1365.91        500.000        3150.59     
  1363.41        500.000        3153.18     
  1360.90        500.000        3167.17     
  1358.40        500.000        3178.92     
  1355.89        500.000        3181.41     
  1353.38        500.000        3184.64     
  1350.88        500.000        3188.07     
  1348.37        500.000        3191.26     
  1345.86        500.000        3194.54     
  1343.36        500.000        3197.93     
  1340.85        500.000        3201.26     
  1338.35        500.000        3204.29     
  1335.84        500.000        3207.73     
  1333.33        500.000        3220.43     
  1330.83        500.000        3204.47     
  1328.32        500.000        3217.03     
  1325.81        500.000        3220.21     
  1323.31        500.000        3223.22     
  1320.80        500.000        3226.35     
  1318.30        500.000        3229.22     
  1315.79        500.000        3232.06     
  1313.28        500.000        3234.85     
  1310.78        500.000        3237.67     
  1308.27        500.000        3240.34     
  1305.76        500.000        3242.91     
  1303.26        500.000        3245.44     
  1300.75        500.000        3247.79     
  1298.25        500.000        3249.69     
  1295.74        500.000        3252.74     
  1293.23        500.000        3254.53     
  1290.73        500.000        3256.50     
  1288.22        500.000        3258.40     
  1285.71        500.000        3260.19     
  1283.21        500.000        2854.12     
  1280.70        500.000        2786.70     
  1278.20        500.000        2791.92     
  1275.69        500.000        2796.86     
  1273.18        500.000        2801.43     
  1270.68        500.000        2805.92     
  1268.17        500.000        2810.17     
  1265.66        500.000        2814.13     
  1263.16        500.000        2818.05     
  1260.65        500.000        2821.82     
  1258.15        500.000        2825.53     
  1255.64        500.000        2829.05     
  1253.13        500.000        2832.25     
  1250.63        500.000        2835.48     
  1248.12        500.000        2838.42     
  1245.61        500.000        2841.98     
  1243.11        500.000        2844.61     
  1240.60        500.000        2847.45     
  1238.10        500.000        2854.91     
  1235.59        500.000        2858.72     
  1233.08        500.000        2859.40     
  1230.58        500.000        2860.88     
  1228.07        500.000        2861.00     
  1225.56        500.000        2861.95     
  1223.06        500.000        2862.28     
  1220.55        500.000        2861.99     
  1218.05        500.000        2863.15     
  1215.54        500.000        2862.70     
  1213.03        500.000        2862.75     
  1210.53        500.000        2862.44     
  1208.02        500.000        2829.10     
  1205.51        500.000        2748.06     
  1203.01        500.000        2674.13     
  1200.50        500.000        2705.68     
  1197.99        500.000        2669.53     
  1195.49        500.000        2694.49     
  1192.98        500.000        2672.12     
  1190.48        500.000        2663.08     
  1187.97        500.000        2641.57     
  1185.46        500.000        2635.27     
  1182.96        500.000        2635.38     
  1180.45        500.000        2635.50     
  1177.94        500.000        2629.84     
  1175.44        500.000        2635.71     
  1172.93        500.000        2635.80     
  1170.43        500.000        2635.94     
  1167.92        500.000        2632.25     
  1165.41        500.000        2633.52     
  1162.91        500.000        2632.39     
  1160.40        500.000        2632.51     
  1157.89        500.000        2632.54     
  1155.39        500.000        2632.61     
  1152.88        500.000        2632.74     
  1150.38        500.000        2632.77     
  1147.87        500.000        2633.84     
  1145.36        500.000        2632.93     
  1142.86        500.000        2633.01     
  1140.35        500.000        2633.08     
  1137.84        500.000        2633.16     
  1135.34        500.000        2633.25     
  1132.83        500.000        2633.34     
  1130.33        500.000        2633.40     
  1127.82        500.000        2633.54     
  1125.31        500.000        2633.56     
  1122.81        500.000        2633.65     
  1120.30        500.000        2633.74     
  1117.79        500.000        2633.82     
  1115.29        500.000        2633.91     
  1112.78        500.000        2633.99     
  1110.28        500.000        2634.08     
  1107.77        500.000        2634.16     
  1105.26        500.000        2634.25     
  1102.76        500.000        2634.34     
  1100.25        500.000        2634.42     
  1097.74        500.000        2634.51     
  1095.24        500.000        2634.60     
  1092.73        500.000        2634.68     
  1090.23        500.000        2634.82     
  1087.72        500.000        2634.88     
  1085.21        500.000        2634.96     
  1082.71        500.000        2635.06     
  1080.20        500.000        2635.17     
  1077.69        500.000        2635.24     
  1075.19        500.000        2635.30     
  1072.68        500.000        2635.39     
  1070.18        500.000        2635.48     
  1067.67        500.000        2635.60     
  1065.16        500.000        2635.69     
  1062.66        500.000        2635.78     
  1060.15        500.000        2635.86     
  1057.64        500.000        2635.95     
  1055.14        500.000        2636.04     
  1052.63        500.000        2636.14     
  1050.13        500.000        2636.23     
  1047.62        500.000        2636.29     
  1045.11        500.000        2636.41     
  1042.61        500.000        2636.50     
  1040.10        500.000        2636.59     
  1037.59        500.000        2636.68     
  1035.09        500.000        2636.77     
  1032.58        500.000        2636.87     
  1030.08        500.000        2636.95     
  1027.57        500.000        2637.04     
  1025.06        500.000        2637.14     
  1022.56        500.000        2637.22     
  1020.05        500.000        2637.32     
  1017.54        500.000        2637.38     
  1015.04        500.000        2637.47     
  1012.53        500.000        2637.56     
  1010.03        500.000        2637.66     
  1007.52        500.000        2637.75     
  1005.01        500.000        2637.84     
  1002.51        500.000        2637.93     
  1000.00        500.000        2638.02     
