|6.6.6
Archiving\03_Data\frac/QFM_m2.5/EETA/EETA_6.tab                           
           1
T(K)    
  0.000000000000000E+000
  0.000000000000000E+000
           0
           3
T(K)           P(bar)         rho,kg/m3     
  2000.00        2500.00        3627.41     
  1997.49        2500.00        3627.79     
  1994.99        2500.00        3628.17     
  1992.48        2500.00        3628.54     
  1989.97        2500.00        3628.92     
  1987.47        2500.00        3629.30     
  1984.96        2500.00        3629.68     
  1982.46        2500.00        3630.05     
  1979.95        2500.00        3630.43     
  1977.44        2500.00        3630.81     
  1974.94        2500.00        3631.18     
  1972.43        2500.00        3631.56     
  1969.92        2500.00        3631.93     
  1967.42        2500.00        3632.31     
  1964.91        2500.00        3632.69     
  1962.41        2500.00        3633.06     
  1959.90        2500.00        3633.44     
  1957.39        2500.00        3633.81     
  1954.89        2500.00        3634.19     
  1952.38        2500.00        3634.56     
  1949.87        2500.00        3634.94     
  1947.37        2500.00        3635.31     
  1944.86        2500.00        3635.69     
  1942.36        2500.00        3636.06     
  1939.85        2500.00        3636.44     
  1937.34        2500.00        3636.81     
  1934.84        2500.00        3637.18     
  1932.33        2500.00        3637.56     
  1929.82        2500.00        3637.93     
  1927.32        2500.00        3638.31     
  1924.81        2500.00        3638.68     
  1922.31        2500.00        3639.05     
  1919.80        2500.00        3639.43     
  1917.29        2500.00        3639.80     
  1914.79        2500.00        3640.17     
  1912.28        2500.00        3640.55     
  1909.77        2500.00        3640.92     
  1907.27        2500.00        3641.29     
  1904.76        2500.00        3641.66     
  1902.26        2500.00        3642.04     
  1899.75        2500.00        3642.41     
  1897.24        2500.00        3642.78     
  1894.74        2500.00        3643.15     
  1892.23        2500.00        3643.53     
  1889.72        2500.00        3643.90     
  1887.22        2500.00        3644.27     
  1884.71        2500.00        3644.64     
  1882.21        2500.00        3645.01     
  1879.70        2500.00        3645.38     
  1877.19        2500.00        3645.75     
  1874.69        2500.00        3646.13     
  1872.18        2500.00        3646.50     
  1869.67        2500.00        3646.87     
  1867.17        2500.00        3647.24     
  1864.66        2500.00        3647.61     
  1862.16        2500.00        3647.98     
  1859.65        2500.00        3648.35     
  1857.14        2500.00        3648.72     
  1854.64        2500.00        3649.09     
  1852.13        2500.00        3649.46     
  1849.62        2500.00        3649.83     
  1847.12        2500.00        3650.20     
  1844.61        2500.00        3650.57     
  1842.11        2500.00        3650.94     
  1839.60        2500.00        3651.31     
  1837.09        2500.00        3651.68     
  1834.59        2500.00        3652.05     
  1832.08        2500.00        3652.42     
  1829.57        2500.00        3652.78     
  1827.07        2500.00        3653.15     
  1824.56        2500.00        3653.52     
  1822.06        2500.00        3653.89     
  1819.55        2500.00        3654.26     
  1817.04        2500.00        3654.63     
  1814.54        2500.00        3654.99     
  1812.03        2500.00        3655.36     
  1809.52        2500.00        3655.73     
  1807.02        2500.00        3656.10     
  1804.51        2500.00        3656.47     
  1802.01        2500.00        3656.83     
  1799.50        2500.00        3657.20     
  1796.99        2500.00        3657.57     
  1794.49        2500.00        3657.93     
  1791.98        2500.00        3658.30     
  1789.47        2500.00        3658.67     
  1786.97        2500.00        3659.04     
  1784.46        2500.00        3659.40     
  1781.95        2500.00        3659.77     
  1779.45        2500.00        3660.13     
  1776.94        2500.00        3660.50     
  1774.44        2500.00        3660.87     
  1771.93        2500.00        3661.23     
  1769.42        2500.00        3661.60     
  1766.92        2500.00        3661.96     
  1764.41        2500.00        3662.33     
  1761.90        2500.00        3662.70     
  1759.40        2500.00        3663.06     
  1756.89        2500.00        3663.43     
  1754.39        2500.00        3663.79     
  1751.88        2500.00        3664.16     
  1749.37        2500.00        3664.52     
  1746.87        2500.00        3664.89     
  1744.36        2500.00        3665.25     
  1741.85        2500.00        3665.62     
  1739.35        2500.00        3665.98     
  1736.84        2500.00        3666.34     
  1734.34        2500.00        3666.71     
  1731.83        2500.00        3667.07     
  1729.32        2500.00        3667.44     
  1726.82        2500.00        3667.80     
  1724.31        2500.00        3668.16     
  1721.80        2500.00        3668.53     
  1719.30        2500.00        3668.89     
  1716.79        2500.00        3669.25     
  1714.29        2500.00        3669.62     
  1711.78        2500.00        3669.98     
  1709.27        2500.00        3670.34     
  1706.77        2500.00        3670.71     
  1704.26        2500.00        3671.07     
  1701.75        2500.00        3671.43     
  1699.25        2500.00        3671.79     
  1696.74        2500.00        3672.16     
  1694.24        2500.00        3672.52     
  1691.73        2500.00        3672.88     
  1689.22        2500.00        3673.24     
  1686.72        2500.00        3673.60     
  1684.21        2500.00        3673.97     
  1681.70        2500.00        3674.33     
  1679.20        2500.00        3674.69     
  1676.69        2500.00        3675.05     
  1674.19        2500.00        3675.41     
  1671.68        2500.00        3675.77     
  1669.17        2500.00        3676.13     
  1666.67        2500.00        3676.49     
  1664.16        2500.00        3676.85     
  1661.65        2500.00        3677.22     
  1659.15        2500.00        3677.58     
  1656.64        2500.00        3686.10     
  1654.14        2500.00        3686.75     
  1651.63        2500.00        3687.04     
  1649.12        2500.00        3687.33     
  1646.62        2500.00        3687.63     
  1644.11        2500.00        3687.89     
  1641.60        2500.00        3688.19     
  1639.10        2500.00        3688.50     
  1636.59        2500.00        3682.05     
  1634.09        2500.00        3598.62     
  1631.58        2500.00        4510.91     
  1629.07        2500.00        4511.21     
  1626.57        2500.00        4510.86     
  1624.06        2500.00        4511.37     
  1621.55        2500.00        4511.32     
  1619.05        2500.00        4511.50     
  1616.54        2500.00        3414.96     
  1614.04        2500.00        3413.62     
  1611.53        2500.00        3415.95     
  1609.02        2500.00        3418.20     
  1606.52        2500.00        3419.18     
  1604.01        2500.00        3422.34     
  1601.50        2500.00        3423.39     
  1599.00        2500.00        3425.07     
  1596.49        2500.00        3427.02     
  1593.98        2500.00        3429.07     
  1591.48        2500.00        3368.78     
  1588.97        2500.00        3294.00     
  1586.47        2500.00        3294.93     
  1583.96        2500.00        3295.55     
  1581.45        2500.00        3298.57     
  1578.95        2500.00        3299.17     
  1576.44        2500.00        3299.84     
  1573.93        2500.00        3300.68     
  1571.43        2500.00        3304.32     
  1568.92        2500.00        3304.25     
  1566.42        2500.00        3305.06     
  1563.91        2500.00        3306.23     
  1561.40        2500.00        3308.04     
  1558.90        2500.00        3308.87     
  1556.39        2500.00        3309.76     
  1553.88        2500.00        3311.66     
  1551.38        2500.00        3311.97     
  1548.87        2500.00        3313.90     
  1546.37        2500.00        2907.70     
  1543.86        2500.00        3313.43     
  1541.35        2500.00        3318.54     
  1538.85        2500.00        3318.27     
  1536.34        2500.00        3319.25     
  1533.83        2500.00        3320.27     
  1531.33        2500.00        3321.12     
  1528.82        2500.00        3306.33     
  1526.32        2500.00        3293.73     
  1523.81        2500.00        3294.33     
  1521.30        2500.00        3295.88     
  1518.80        2500.00        3297.38     
  1516.29        2500.00        3298.93     
  1513.78        2500.00        3300.58     
  1511.28        2500.00        3302.01     
  1508.77        2500.00        3304.82     
  1506.27        2500.00        3306.01     
  1503.76        2500.00        3306.44     
  1501.25        2500.00        3308.61     
  1498.75        2500.00        3309.99     
  1496.24        2500.00        3311.05     
  1493.73        2500.00        3299.44     
  1491.23        2500.00        3293.90     
  1488.72        2500.00        3296.49     
  1486.22        2500.00        3300.98     
  1483.71        2500.00        3303.67     
  1481.20        2500.00        3305.63     
  1478.70        2500.00        3307.83     
  1476.19        2500.00        3309.91     
  1473.68        2500.00        3312.36     
  1471.18        2500.00        3314.68     
  1468.67        2500.00        3316.99     
  1466.17        2500.00        3321.36     
  1463.66        2500.00        3322.63     
  1461.15        2500.00        3335.74     
  1458.65        2500.00        3338.11     
  1456.14        2500.00        3340.07     
  1453.63        2500.00        3342.36     
  1451.13        2500.00        3344.52     
  1448.62        2500.00        3344.20     
  1446.12        2500.00        3351.52     
  1443.61        2500.00        3351.21     
  1441.10        2500.00        3353.52     
  1438.60        2500.00        3355.90     
  1436.09        2500.00        3358.03     
  1433.58        2500.00        3360.57     
  1431.08        2500.00        3362.66     
  1428.57        2500.00        3364.71     
  1426.07        2500.00        3367.79     
  1423.56        2500.00        3369.63     
  1421.05        2500.00        3258.41     
  1418.55        2500.00        3187.96     
  1416.04        2500.00        3189.85     
  1413.53        2500.00        3197.71     
  1411.03        2500.00        3200.88     
  1408.52        2500.00        3205.06     
  1406.02        2500.00        3209.45     
  1403.51        2500.00        3213.72     
  1401.00        2500.00        3218.23     
  1398.50        2500.00        3222.59     
  1395.99        2500.00        3226.95     
  1393.48        2500.00        3231.13     
  1390.98        2500.00        3235.59     
  1388.47        2500.00        3239.47     
  1385.96        2500.00        3243.35     
  1383.46        2500.00        3247.35     
  1380.95        2500.00        3251.30     
  1378.45        2500.00        3254.74     
  1375.94        2500.00        3258.69     
  1373.43        2500.00        3262.93     
  1370.93        2500.00        3266.27     
  1368.42        2500.00        3269.88     
  1365.91        2500.00        3273.72     
  1363.41        2500.00        3277.85     
  1360.90        2500.00        3280.75     
  1358.40        2500.00        3284.29     
  1355.89        2500.00        3287.18     
  1353.38        2500.00        3290.48     
  1350.88        2500.00        3293.61     
  1348.37        2500.00        3297.05     
  1345.86        2500.00        3299.53     
  1343.36        2500.00        3303.69     
  1340.85        2500.00        3327.58     
  1338.35        2500.00        3350.30     
  1335.84        2500.00        3352.45     
  1333.33        2500.00        3354.29     
  1330.83        2500.00        3355.95     
  1328.32        2500.00        3357.53     
  1325.81        2500.00        3359.32     
  1323.31        2500.00        3360.64     
  1320.80        2500.00        3361.96     
  1318.30        2500.00        3363.48     
  1315.79        2500.00        3364.04     
  1313.28        2500.00        3365.00     
  1310.78        2500.00        3365.73     
  1308.27        2500.00        3366.55     
  1305.76        2500.00        3367.17     
  1303.26        2500.00        3367.51     
  1300.75        2500.00        3367.93     
  1298.25        2500.00        3006.31     
  1295.74        2500.00        2874.53     
  1293.23        2500.00        2882.26     
  1290.73        2500.00        2888.65     
  1288.22        2500.00        2893.77     
  1285.71        2500.00        2898.12     
  1283.21        2500.00        2898.95     
  1280.70        2500.00        2908.74     
  1278.20        2500.00        2905.79     
  1275.69        2500.00        2876.29     
  1273.18        2500.00        2860.78     
  1270.68        2500.00        2870.76     
  1268.17        2500.00        2915.67     
  1265.66        2500.00        2904.57     
  1263.16        2500.00        3019.79     
  1260.65        2500.00        2986.91     
  1258.15        2500.00        3042.24     
  1255.64        2500.00        2949.05     
  1253.13        2500.00        2920.45     
  1250.63        2500.00        2876.45     
  1248.12        2500.00        2947.78     
  1245.61        2500.00        2890.86     
  1243.11        2500.00        2899.05     
  1240.60        2500.00        2887.27     
  1238.10        2500.00        2896.05     
  1235.59        2500.00        2868.60     
  1233.08        2500.00        2753.27     
  1230.58        2500.00        2706.17     
  1228.07        2500.00        2682.42     
  1225.56        2500.00        2682.59     
  1223.06        2500.00        2682.69     
  1220.55        2500.00        2682.86     
  1218.05        2500.00        2682.96     
  1215.54        2500.00        2683.09     
  1213.03        2500.00        2683.21     
  1210.53        2500.00        2683.33     
  1208.02        2500.00        2683.46     
  1205.51        2500.00        2683.59     
  1203.01        2500.00        2683.72     
  1200.50        2500.00        2683.84     
  1197.99        2500.00        2683.97     
  1195.49        2500.00        2684.10     
  1192.98        2500.00        2684.24     
  1190.48        2500.00        2684.37     
  1187.97        2500.00        2684.50     
  1185.46        2500.00        2684.63     
  1182.96        2500.00        2684.75     
  1180.45        2500.00        2684.89     
  1177.94        2500.00        2685.02     
  1175.44        2500.00        2685.15     
  1172.93        2500.00        2685.29     
  1170.43        2500.00        2685.42     
  1167.92        2500.00        2685.54     
  1165.41        2500.00        2685.67     
  1162.91        2500.00        2685.62     
  1160.40        2500.00        2685.92     
  1157.89        2500.00        2686.05     
  1155.39        2500.00        2686.18     
  1152.88        2500.00        2686.32     
  1150.38        2500.00        2686.45     
  1147.87        2500.00        2686.57     
  1145.36        2500.00        2686.70     
  1142.86        2500.00        2686.82     
  1140.35        2500.00        2686.95     
  1137.84        2500.00        2687.08     
  1135.34        2500.00        2687.20     
  1132.83        2500.00        2687.34     
  1130.33        2500.00        2687.46     
  1127.82        2500.00        2687.59     
  1125.31        2500.00        2687.72     
  1122.81        2500.00        2687.70     
  1120.30        2500.00        2687.83     
  1117.79        2500.00        2687.96     
  1115.29        2500.00        2688.09     
  1112.78        2500.00        2688.22     
  1110.28        2500.00        2688.35     
  1107.77        2500.00        2688.48     
  1105.26        2500.00        2688.61     
  1102.76        2500.00        2688.74     
  1100.25        2500.00        2688.87     
  1097.74        2500.00        2689.01     
  1095.24        2500.00        2689.14     
  1092.73        2500.00        2689.26     
  1090.23        2500.00        2689.38     
  1087.72        2500.00        2689.51     
  1085.21        2500.00        2689.63     
  1082.71        2500.00        2689.75     
  1080.20        2500.00        2689.82     
  1077.69        2500.00        2690.16     
  1075.19        2500.00        2690.21     
  1072.68        2500.00        2690.37     
  1070.18        2500.00        2690.49     
  1067.67        2500.00        2690.61     
  1065.16        2500.00        2690.73     
  1062.66        2500.00        2690.85     
  1060.15        2500.00        2690.97     
  1057.64        2500.00        2691.09     
  1055.14        2500.00        2691.21     
  1052.63        2500.00        2691.33     
  1050.13        2500.00        2691.45     
  1047.62        2500.00        2691.57     
  1045.11        2500.00        2691.69     
  1042.61        2500.00        2691.81     
  1040.10        2500.00        2691.93     
  1037.59        2500.00        2692.04     
  1035.09        2500.00        2692.16     
  1032.58        2500.00        2692.28     
  1030.08        2500.00        2692.40     
  1027.57        2500.00        2692.52     
  1025.06        2500.00        2692.64     
  1022.56        2500.00        2692.76     
  1020.05        2500.00        2692.88     
  1017.54        2500.00        2693.00     
  1015.04        2500.00        2693.11     
  1012.53        2500.00        2693.23     
  1010.03        2500.00        2693.35     
  1007.52        2500.00        2693.47     
  1005.01        2500.00        2693.58     
  1002.51        2500.00        2693.70     
  1000.00        2500.00        2693.82     
