|6.6.6
Archiving\03_Data\DeqfracLP/QFM_m0.25/YM20/YM20_2.tab                   
           1
T(K)    
  0.000000000000000E+000
  0.000000000000000E+000
           0
           3
T(K)           P(bar)         Sp(TH),kg     
  1576.92        500.000                 NaN
  1575.47        500.000                 NaN
  1574.03        500.000                 NaN
  1572.58        500.000                 NaN
  1571.14        500.000                 NaN
  1569.69        500.000                 NaN
  1568.24        500.000                 NaN
  1566.80        500.000                 NaN
  1565.35        500.000                 NaN
  1563.91        500.000                 NaN
  1562.46        500.000                 NaN
  1561.01        500.000                 NaN
  1559.57        500.000                 NaN
  1558.12        500.000                 NaN
  1556.68        500.000                 NaN
  1555.23        500.000                 NaN
  1553.79        500.000                 NaN
  1552.34        500.000                 NaN
  1550.89        500.000                 NaN
  1549.45        500.000                 NaN
  1548.00        500.000                 NaN
  1546.56        500.000                 NaN
  1545.11        500.000                 NaN
  1543.66        500.000                 NaN
  1542.22        500.000                 NaN
  1540.77        500.000                 NaN
  1539.33        500.000                 NaN
  1537.88        500.000                 NaN
  1536.43        500.000                 NaN
  1534.99        500.000                 NaN
  1533.54        500.000                 NaN
  1532.10        500.000                 NaN
  1530.65        500.000                 NaN
  1529.20        500.000                 NaN
  1527.76        500.000                 NaN
  1526.31        500.000                 NaN
  1524.87        500.000                 NaN
  1523.42        500.000                 NaN
  1521.98        500.000                 NaN
  1520.53        500.000                 NaN
  1519.08        500.000                 NaN
  1517.64        500.000                 NaN
  1516.19        500.000                 NaN
  1514.75        500.000                 NaN
  1513.30        500.000                 NaN
  1511.85        500.000                 NaN
  1510.41        500.000                 NaN
  1508.96        500.000                 NaN
  1507.52        500.000                 NaN
  1506.07        500.000                 NaN
  1504.62        500.000                 NaN
  1503.18        500.000                 NaN
  1501.73        500.000                 NaN
  1500.29        500.000                 NaN
  1498.84        500.000                 NaN
  1497.39        500.000                 NaN
  1495.95        500.000                 NaN
  1494.50        500.000                 NaN
  1493.06        500.000                 NaN
  1491.61        500.000                 NaN
  1490.17        500.000                 NaN
  1488.72        500.000                 NaN
  1487.27        500.000                 NaN
  1485.83        500.000                 NaN
  1484.38        500.000                 NaN
  1482.94        500.000                 NaN
  1481.49        500.000                 NaN
  1480.04        500.000                 NaN
  1478.60        500.000                 NaN
  1477.15        500.000                 NaN
  1475.71        500.000                 NaN
  1474.26        500.000                 NaN
  1472.81        500.000                 NaN
  1471.37        500.000                 NaN
  1469.92        500.000                 NaN
  1468.48        500.000                 NaN
  1467.03        500.000                 NaN
  1465.58        500.000                 NaN
  1464.14        500.000                 NaN
  1462.69        500.000                 NaN
  1461.25        500.000                 NaN
  1459.80        500.000                 NaN
  1458.35        500.000                 NaN
  1456.91        500.000                 NaN
  1455.46        500.000                 NaN
  1454.02        500.000                 NaN
  1452.57        500.000                 NaN
  1451.13        500.000                 NaN
  1449.68        500.000                 NaN
  1448.23        500.000                 NaN
  1446.79        500.000                 NaN
  1445.34        500.000                 NaN
  1443.90        500.000                 NaN
  1442.45        500.000                 NaN
  1441.00        500.000                 NaN
  1439.56        500.000                 NaN
  1438.11        500.000                 NaN
  1436.67        500.000                 NaN
  1435.22        500.000                 NaN
  1433.77        500.000                 NaN
  1432.33        500.000                 NaN
  1430.88        500.000                 NaN
  1429.44        500.000                 NaN
  1427.99        500.000                 NaN
  1426.54        500.000                 NaN
  1425.10        500.000                 NaN
  1423.65        500.000                 NaN
  1422.21        500.000                 NaN
  1420.76        500.000                 NaN
  1419.32        500.000                 NaN
  1417.87        500.000                 NaN
  1416.42        500.000                 NaN
  1414.98        500.000                 NaN
  1413.53        500.000                 NaN
  1412.09        500.000                 NaN
  1410.64        500.000                 NaN
  1409.19        500.000                 NaN
  1407.75        500.000                 NaN
  1406.30        500.000                 NaN
  1404.86        500.000                 NaN
  1403.41        500.000                 NaN
  1401.96        500.000                 NaN
  1400.52        500.000                 NaN
  1399.07        500.000                 NaN
  1397.63        500.000                 NaN
  1396.18        500.000                 NaN
  1394.73        500.000                 NaN
  1393.29        500.000                 NaN
  1391.84        500.000                 NaN
  1390.40        500.000                 NaN
  1388.95        500.000                 NaN
  1387.51        500.000                 NaN
  1386.06        500.000                 NaN
  1384.61        500.000                 NaN
  1383.17        500.000                 NaN
  1381.72        500.000                 NaN
  1380.28        500.000                 NaN
  1378.83        500.000                 NaN
  1377.38        500.000                 NaN
  1375.94        500.000                 NaN
  1374.49        500.000                 NaN
  1373.05        500.000                 NaN
  1371.60        500.000                 NaN
  1370.15        500.000                 NaN
  1368.71        500.000                 NaN
  1367.26        500.000                 NaN
  1365.82        500.000                 NaN
  1364.37        500.000                 NaN
  1362.92        500.000                 NaN
  1361.48        500.000                 NaN
  1360.03        500.000                 NaN
  1358.59        500.000                 NaN
  1357.14        500.000                 NaN
  1355.70        500.000                 NaN
  1354.25        500.000                 NaN
  1352.80        500.000                 NaN
  1351.36        500.000                 NaN
  1349.91        500.000                 NaN
  1348.47        500.000                 NaN
  1347.02        500.000                 NaN
  1345.57        500.000                 NaN
  1344.13        500.000                 NaN
  1342.68        500.000                 NaN
  1341.24        500.000                 NaN
  1339.79        500.000                 NaN
  1338.34        500.000                 NaN
  1336.90        500.000                 NaN
  1335.45        500.000                 NaN
  1334.01        500.000                 NaN
  1332.56        500.000                 NaN
  1331.11        500.000                 NaN
  1329.67        500.000                 NaN
  1328.22        500.000                 NaN
  1326.78        500.000                 NaN
  1325.33        500.000                 NaN
  1323.88        500.000                 NaN
  1322.44        500.000                 NaN
  1320.99        500.000                 NaN
  1319.55        500.000                 NaN
  1318.10        500.000                 NaN
  1316.66        500.000                 NaN
  1315.21        500.000                 NaN
  1313.76        500.000                 NaN
  1312.32        500.000                 NaN
  1310.87        500.000                 NaN
  1309.43        500.000                 NaN
  1307.98        500.000                 NaN
  1306.53        500.000                 NaN
  1305.09        500.000                 NaN
  1303.64        500.000                 NaN
  1302.20        500.000                 NaN
  1300.75        500.000                 NaN
  1299.30        500.000                 NaN
  1297.86        500.000                 NaN
  1296.41        500.000                 NaN
  1294.97        500.000                 NaN
  1293.52        500.000                 NaN
  1292.07        500.000                 NaN
  1290.63        500.000                 NaN
  1289.18        500.000                 NaN
  1287.74        500.000                 NaN
  1286.29        500.000                 NaN
  1284.85        500.000                 NaN
  1283.40        500.000       0.216040E-006
  1281.95        500.000       0.573502E-005
  1280.51        500.000       0.563705E-005
  1279.06        500.000       0.550333E-005
  1277.62        500.000       0.538046E-005
  1276.17        500.000       0.524624E-005
  1274.72        500.000       0.512180E-005
  1273.28        500.000       0.498861E-005
  1271.83        500.000       0.487802E-005
  1270.39        500.000       0.474649E-005
  1268.94        500.000       0.908553E-005
  1267.49        500.000       0.237773E-004
  1266.05        500.000       0.189739E-004
  1264.60        500.000       0.155344E-004
  1263.16        500.000       0.130132E-004
  1261.71        500.000       0.110997E-004
  1260.26        500.000       0.961960E-005
  1258.82        500.000       0.843363E-005
  1257.37        500.000       0.748143E-005
  1255.93        500.000       0.668734E-005
  1254.48        500.000       0.603079E-005
  1253.04        500.000       0.547002E-005
  1251.59        500.000       0.500105E-005
  1250.14        500.000       0.458617E-005
  1248.70        500.000       0.422663E-005
  1247.25        500.000       0.391050E-005
  1245.81        500.000       0.362586E-005
  1244.36        500.000       0.344447E-005
  1242.91        500.000       0.306476E-005
  1241.47        500.000       0.657273E-005
  1240.02        500.000       0.848894E-006
  1238.58        500.000       0.100000E-005
  1237.13        500.000       0.246277E-005
  1235.68        500.000       0.171004E-005
  1234.24        500.000       0.300390E-005
  1232.79        500.000       0.607910E-006
  1231.35        500.000       0.578051E-005
  1229.90        500.000       0.531071E-006
  1228.45        500.000       0.751447E-006
  1227.01        500.000       0.339625E-006
  1225.56        500.000       0.135453E-005
  1224.12        500.000       0.255597E-005
  1222.67        500.000       0.610925E-008
  1221.22        500.000       0.121764E-005
  1219.78        500.000       0.788968E-006
  1218.33        500.000       0.134920E-005
  1216.89        500.000       0.440415E-006
  1215.44        500.000       0.120161E-006
  1214.00        500.000                 NaN
  1212.55        500.000                 NaN
  1211.10        500.000       0.766839E-006
  1209.66        500.000                 NaN
  1208.21        500.000       0.208405E-006
  1206.77        500.000       0.117543E-005
  1205.32        500.000       0.261780E-005
  1203.87        500.000       0.113332E-005
  1202.43        500.000       0.238773E-006
  1200.98        500.000       0.558952E-005
  1199.54        500.000       0.411510E-005
  1198.09        500.000                 NaN
  1196.64        500.000                 NaN
  1195.20        500.000       0.329690E-005
  1193.75        500.000       0.126366E-005
  1192.31        500.000       0.132306E-005
  1190.86        500.000       0.108653E-005
  1189.41        500.000       0.105635E-005
  1187.97        500.000       0.111192E-005
  1186.52        500.000       0.156992E-005
  1185.08        500.000       0.572485E-005
  1183.63        500.000       0.573553E-005
  1182.19        500.000       0.580211E-005
  1180.74        500.000       0.580197E-005
  1179.29        500.000       0.580346E-005
  1177.85        500.000       0.580515E-005
  1176.40        500.000       0.580851E-005
  1174.96        500.000       0.581119E-005
  1173.51        500.000       0.579658E-005
  1172.06        500.000       0.577496E-005
  1170.62        500.000       0.579037E-005
  1169.17        500.000       0.577810E-005
  1167.73        500.000       0.577760E-005
  1166.28        500.000       0.577822E-005
  1164.83        500.000       0.578016E-005
  1163.39        500.000       0.583225E-005
  1161.94        500.000       0.583800E-005
  1160.50        500.000       0.583585E-005
  1159.05        500.000       0.585554E-005
  1157.60        500.000       0.585091E-005
  1156.16        500.000       0.585449E-005
  1154.71        500.000       0.584924E-005
  1153.27        500.000       0.585049E-005
  1151.82        500.000       0.585591E-005
  1150.38        500.000       0.583751E-005
  1148.93        500.000       0.585353E-005
  1147.48        500.000       0.585575E-005
  1146.04        500.000       0.585650E-005
  1144.59        500.000       0.582652E-005
  1143.15        500.000       0.581899E-005
  1141.70        500.000       0.581860E-005
  1140.25        500.000       0.582454E-005
  1138.81        500.000       0.583535E-005
  1137.36        500.000       0.582312E-005
  1135.92        500.000       0.582863E-005
  1134.47        500.000       0.583078E-005
  1133.02        500.000       0.583397E-005
  1131.58        500.000       0.583734E-005
  1130.13        500.000       0.590658E-005
  1128.69        500.000       0.584336E-005
  1127.24        500.000       0.585101E-005
  1125.79        500.000       0.585677E-005
  1124.35        500.000       0.590269E-005
  1122.90        500.000       0.588467E-005
  1121.46        500.000       0.591527E-005
  1120.01        500.000       0.592667E-005
  1118.57        500.000       0.586476E-005
  1117.12        500.000       0.586884E-005
  1115.67        500.000       0.587367E-005
  1114.23        500.000       0.587435E-005
  1112.78        500.000       0.587977E-005
  1111.34        500.000       0.592937E-005
  1109.89        500.000       0.592800E-005
  1108.44        500.000       0.592858E-005
  1107.00        500.000       0.588666E-005
  1105.55        500.000       0.588577E-005
  1104.11        500.000       0.588967E-005
  1102.66        500.000       0.594511E-005
  1101.21        500.000       0.589547E-005
  1099.77        500.000       0.589733E-005
  1098.32        500.000       0.590011E-005
  1096.88        500.000       0.590200E-005
  1095.43        500.000       0.590422E-005
  1093.98        500.000       0.590683E-005
  1092.54        500.000       0.590875E-005
  1091.09        500.000       0.591251E-005
  1089.65        500.000       0.591473E-005
  1088.20        500.000       0.591452E-005
  1086.75        500.000       0.591875E-005
  1085.31        500.000       0.592029E-005
  1083.86        500.000       0.592574E-005
  1082.42        500.000       0.592673E-005
  1080.97        500.000       0.592900E-005
  1079.53        500.000       0.592985E-005
  1078.08        500.000       0.593059E-005
  1076.63        500.000       0.593364E-005
  1075.19        500.000       0.592723E-005
  1073.74        500.000       0.590135E-005
  1072.30        500.000       0.590598E-005
  1070.85        500.000       0.589527E-005
  1069.40        500.000       0.588574E-005
  1067.96        500.000       0.587526E-005
  1066.51        500.000       0.586824E-005
  1065.07        500.000       0.586402E-005
  1063.62        500.000       0.586396E-005
  1062.17        500.000       0.586385E-005
  1060.73        500.000       0.583072E-005
  1059.28        500.000       0.563228E-005
  1057.84        500.000       0.513809E-005
  1056.39        500.000       0.513798E-005
  1054.94        500.000       0.513798E-005
  1053.50        500.000       0.513798E-005
  1052.05        500.000       0.513783E-005
  1050.61        500.000       0.424816E-005
  1049.16        500.000       0.425103E-005
  1047.72        500.000       0.377360E-005
  1046.27        500.000       0.346511E-005
  1044.82        500.000       0.285978E-005
  1043.38        500.000       0.285978E-005
  1041.93        500.000       0.197074E-005
  1040.49        500.000       0.197073E-005
  1039.04        500.000       0.192320E-005
  1037.59        500.000       0.192320E-005
  1036.15        500.000       0.127471E-005
  1034.70        500.000       0.241138E-006
  1033.26        500.000       0.881755E-007
  1031.81        500.000                 NaN
  1030.36        500.000                 NaN
  1028.92        500.000                 NaN
  1027.47        500.000                 NaN
  1026.03        500.000                 NaN
  1024.58        500.000                 NaN
  1023.13        500.000                 NaN
  1021.69        500.000                 NaN
  1020.24        500.000                 NaN
  1018.80        500.000                 NaN
  1017.35        500.000                 NaN
  1015.91        500.000                 NaN
  1014.46        500.000                 NaN
  1013.01        500.000                 NaN
  1011.57        500.000                 NaN
  1010.12        500.000                 NaN
  1008.68        500.000                 NaN
  1007.23        500.000                 NaN
  1005.78        500.000                 NaN
  1004.34        500.000                 NaN
  1002.89        500.000                 NaN
  1001.45        500.000                 NaN
  1000.00        500.000                 NaN
