|6.6.6
Archiving\03_Data\DfracLP/QFM_m4.5/K22/K22_6.tab                      
           1
T(K)    
  0.000000000000000E+000
  0.000000000000000E+000
           0
           3
T(K)           P(bar)         rho,kg/m3     
  2000.00        500.000        8099.88     
  1997.49        500.000        8101.32     
  1994.99        500.000        8102.75     
  1992.48        500.000        8104.18     
  1989.97        500.000        8105.61     
  1987.47        500.000        8107.04     
  1984.96        500.000        8108.47     
  1982.46        500.000        8109.90     
  1979.95        500.000        8111.32     
  1977.44        500.000        8112.75     
  1974.94        500.000        8114.18     
  1972.43        500.000        8115.60     
  1969.92        500.000        8117.02     
  1967.42        500.000        8118.44     
  1964.91        500.000        8119.87     
  1962.41        500.000        8121.29     
  1959.90        500.000        8122.71     
  1957.39        500.000        8124.12     
  1954.89        500.000        8125.54     
  1952.38        500.000        8126.96     
  1949.87        500.000        8128.38     
  1947.37        500.000        8129.79     
  1944.86        500.000        3244.29     
  1942.36        500.000        3123.26     
  1939.85        500.000        3124.51     
  1937.34        500.000        3124.82     
  1934.84        500.000        3127.43     
  1932.33        500.000        3129.09     
  1929.82        500.000        3129.93     
  1927.32        500.000        3131.39     
  1924.81        500.000        3132.92     
  1922.31        500.000        3134.30     
  1919.80        500.000        3135.88     
  1917.29        500.000        3137.39     
  1914.79        500.000        3138.76     
  1912.28        500.000        3139.75     
  1909.77        500.000        3141.12     
  1907.27        500.000        3142.46     
  1904.76        500.000        3144.21     
  1902.26        500.000        3145.46     
  1899.75        500.000        3148.07     
  1897.24        500.000        3148.55     
  1894.74        500.000        3150.54     
  1892.23        500.000        3152.84     
  1889.72        500.000        3169.78     
  1887.22        500.000        3178.01     
  1884.71        500.000        3179.49     
  1882.21        500.000        3181.15     
  1879.70        500.000        3182.66     
  1877.19        500.000        3184.53     
  1874.69        500.000        3183.33     
  1872.18        500.000        2912.88     
  1869.67        500.000        3187.64     
  1867.17        500.000        3190.62     
  1864.66        500.000        3191.80     
  1862.16        500.000        3194.45     
  1859.65        500.000        3195.77     
  1857.14        500.000        3197.56     
  1854.64        500.000        3199.75     
  1852.13        500.000        3200.11     
  1849.62        500.000        3202.68     
  1847.12        500.000        3203.72     
  1844.61        500.000        3205.24     
  1842.11        500.000        3206.82     
  1839.60        500.000        3209.45     
  1837.09        500.000        3210.34     
  1834.59        500.000        3211.94     
  1832.08        500.000        3213.56     
  1829.57        500.000        3214.85     
  1827.07        500.000        3216.56     
  1824.56        500.000        3218.28     
  1822.06        500.000        3220.05     
  1819.55        500.000        3221.70     
  1817.04        500.000        3223.31     
  1814.54        500.000        3224.99     
  1812.03        500.000        3226.35     
  1809.52        500.000        3228.46     
  1807.02        500.000        3243.38     
  1804.51        500.000        3231.02     
  1802.01        500.000        3233.00     
  1799.50        500.000        3234.19     
  1796.99        500.000        3236.22     
  1794.49        500.000        3238.05     
  1791.98        500.000        3239.15     
  1789.47        500.000        3241.05     
  1786.97        500.000        3242.78     
  1784.46        500.000        3243.98     
  1781.95        500.000        3246.49     
  1779.45        500.000        3247.30     
  1776.94        500.000        3249.10     
  1774.44        500.000        3239.66     
  1771.93        500.000        3252.24     
  1769.42        500.000        3253.81     
  1766.92        500.000        3254.89     
  1764.41        500.000        3256.19     
  1761.90        500.000        3258.89     
  1759.40        500.000        3260.17     
  1756.89        500.000        3261.73     
  1754.39        500.000        3259.70     
  1751.88        500.000        3263.25     
  1749.37        500.000        3266.97     
  1746.87        500.000        3270.26     
  1744.36        500.000        3279.21     
  1741.85        500.000        3270.36     
  1739.35        500.000        3272.90     
  1736.84        500.000        3274.34     
  1734.34        500.000        3265.44     
  1731.83        500.000        3276.91     
  1729.32        500.000        3279.25     
  1726.82        500.000        3280.35     
  1724.31        500.000        3284.07     
  1721.80        500.000        3283.83     
  1719.30        500.000        3285.51     
  1716.79        500.000        3287.79     
  1714.29        500.000        3288.16     
  1711.78        500.000        3289.63     
  1709.27        500.000        3291.41     
  1706.77        500.000        3294.31     
  1704.26        500.000        3293.90     
  1701.75        500.000        3296.50     
  1699.25        500.000        3297.53     
  1696.74        500.000        3298.54     
  1694.24        500.000        3300.86     
  1691.73        500.000        3301.94     
  1689.22        500.000        3306.78     
  1686.72        500.000        3305.36     
  1684.21        500.000        3306.78     
  1681.70        500.000        3307.42     
  1679.20        500.000        3309.08     
  1676.69        500.000        3310.96     
  1674.19        500.000        3312.35     
  1671.68        500.000        3313.44     
  1669.17        500.000        3316.27     
  1666.67        500.000        3317.36     
  1664.16        500.000        3316.05     
  1661.65        500.000        3320.23     
  1659.15        500.000        3320.73     
  1656.64        500.000        3321.97     
  1654.14        500.000        3324.13     
  1651.63        500.000        3325.30     
  1649.12        500.000        3325.94     
  1646.62        500.000        3327.52     
  1644.11        500.000        3330.00     
  1641.60        500.000        3331.12     
  1639.10        500.000        3332.05     
  1636.59        500.000        3333.39     
  1634.09        500.000        3334.77     
  1631.58        500.000        3335.26     
  1629.07        500.000        3337.75     
  1626.57        500.000        3338.87     
  1624.06        500.000        3339.69     
  1621.55        500.000        3341.02     
  1619.05        500.000        3340.53     
  1616.54        500.000        3344.55     
  1614.04        500.000        3259.73     
  1611.53        500.000        3238.77     
  1609.02        500.000        3236.71     
  1606.52        500.000        3237.88     
  1604.01        500.000        3238.30     
  1601.50        500.000        3239.28     
  1599.00        500.000        3239.81     
  1596.49        500.000        3240.95     
  1593.98        500.000        3242.49     
  1591.48        500.000        3240.49     
  1588.97        500.000        3245.66     
  1586.47        500.000        3244.80     
  1583.96        500.000        3245.01     
  1581.45        500.000        3246.02     
  1578.95        500.000        3247.73     
  1576.44        500.000        3247.50     
  1573.93        500.000        3248.44     
  1571.43        500.000        3248.99     
  1568.92        500.000        3249.30     
  1566.42        500.000        3251.17     
  1563.91        500.000        3251.80     
  1561.40        500.000        3251.83     
  1558.90        500.000        3252.87     
  1556.39        500.000        3253.43     
  1553.88        500.000        3253.77     
  1551.38        500.000        3255.28     
  1548.87        500.000        3255.43     
  1546.37        500.000        3256.86     
  1543.86        500.000        3257.07     
  1541.35        500.000        3258.05     
  1538.85        500.000        3258.59     
  1536.34        500.000        3262.95     
  1533.83        500.000        3260.90     
  1531.33        500.000        3269.30     
  1528.82        500.000        3262.38     
  1526.32        500.000        3263.74     
  1523.81        500.000        3265.18     
  1521.30        500.000        3266.60     
  1518.80        500.000        3265.68     
  1516.29        500.000        3267.50     
  1513.78        500.000        3267.88     
  1511.28        500.000        3269.16     
  1508.77        500.000        3270.07     
  1506.27        500.000        3270.90     
  1503.76        500.000        3258.03     
  1501.25        500.000        3258.64     
  1498.75        500.000        3260.29     
  1496.24        500.000        3261.48     
  1493.73        500.000        3264.30     
  1491.23        500.000        3263.99     
  1488.72        500.000        3265.61     
  1486.22        500.000        3266.93     
  1483.71        500.000        3268.67     
  1481.20        500.000        3269.50     
  1478.70        500.000        3271.47     
  1476.19        500.000        3272.56     
  1473.68        500.000        3273.86     
  1471.18        500.000        3275.45     
  1468.67        500.000        3276.91     
  1466.17        500.000        3277.88     
  1463.66        500.000        3273.63     
  1461.15        500.000        3261.58     
  1458.65        500.000        3263.32     
  1456.14        500.000        3265.99     
  1453.63        500.000        3267.44     
  1451.13        500.000        3269.74     
  1448.62        500.000        3271.59     
  1446.12        500.000        3273.35     
  1443.61        500.000        3275.84     
  1441.10        500.000        3277.32     
  1438.60        500.000        3279.50     
  1436.09        500.000        3281.54     
  1433.58        500.000        3284.06     
  1431.08        500.000        3200.34     
  1428.57        500.000        3104.15     
  1426.07        500.000        3106.52     
  1423.56        500.000        3109.09     
  1421.05        500.000        3111.65     
  1418.55        500.000        3114.12     
  1416.04        500.000        3116.66     
  1413.53        500.000        3119.38     
  1411.03        500.000        3121.61     
  1408.52        500.000        3124.01     
  1406.02        500.000        3126.46     
  1403.51        500.000        3129.05     
  1401.00        500.000        3131.43     
  1398.50        500.000        3133.97     
  1395.99        500.000        3136.18     
  1393.48        500.000        3138.76     
  1390.98        500.000        3141.30     
  1388.47        500.000        3143.82     
  1385.96        500.000        3146.40     
  1383.46        500.000        3148.74     
  1380.95        500.000        3151.19     
  1378.45        500.000        3153.59     
  1375.94        500.000        3156.10     
  1373.43        500.000        3158.58     
  1370.93        500.000        3161.18     
  1368.42        500.000        3163.76     
  1365.91        500.000        3166.27     
  1363.41        500.000        3168.44     
  1360.90        500.000        3171.19     
  1358.40        500.000        3171.79     
  1355.89        500.000        3170.60     
  1353.38        500.000        3174.54     
  1350.88        500.000        3215.04     
  1348.37        500.000        3233.73     
  1345.86        500.000        3237.32     
  1343.36        500.000        3240.37     
  1340.85        500.000        3243.38     
  1338.35        500.000        3246.52     
  1335.84        500.000        3248.88     
  1333.33        500.000        3251.48     
  1330.83        500.000        3256.02     
  1328.32        500.000        3260.23     
  1325.81        500.000        3263.56     
  1323.31        500.000        3266.78     
  1320.80        500.000        3268.97     
  1318.30        500.000        3271.39     
  1315.79        500.000        3274.06     
  1313.28        500.000        3275.66     
  1310.78        500.000        3277.15     
  1308.27        500.000        3279.06     
  1305.76        500.000        3279.64     
  1303.26        500.000        3280.77     
  1300.75        500.000        3281.12     
  1298.25        500.000        3280.33     
  1295.74        500.000        3279.97     
  1293.23        500.000        3277.52     
  1290.73        500.000        3271.11     
  1288.22        500.000        3244.06     
  1285.71        500.000        3239.57     
  1283.21        500.000        3258.53     
  1280.70        500.000        3247.52     
  1278.20        500.000        3257.29     
  1275.69        500.000        3266.30     
  1273.18        500.000        3259.42     
  1270.68        500.000        3253.93     
  1268.17        500.000        3255.68     
  1265.66        500.000        3257.89     
  1263.16        500.000        3259.05     
  1260.65        500.000        3260.04     
  1258.15        500.000        2830.13     
  1255.64        500.000        2845.14     
  1253.13        500.000        2778.52     
  1250.63        500.000        2778.75     
  1248.12        500.000        2779.07     
  1245.61        500.000        2779.27     
  1243.11        500.000        2779.80     
  1240.60        500.000        2779.99     
  1238.10        500.000        2780.51     
  1235.59        500.000        2780.66     
  1233.08        500.000        2787.63     
  1230.58        500.000        2787.60     
  1228.07        500.000        2786.40     
  1225.56        500.000        2785.04     
  1223.06        500.000        2784.03     
  1220.55        500.000        2783.51     
  1218.05        500.000        2782.61     
  1215.54        500.000        2781.70     
  1213.03        500.000        2781.12     
  1210.53        500.000        2780.17     
  1208.02        500.000        2778.91     
  1205.51        500.000        2778.40     
  1203.01        500.000        2777.47     
  1200.50        500.000        2776.38     
  1197.99        500.000        2775.78     
  1195.49        500.000        2774.86     
  1192.98        500.000        2774.00     
  1190.48        500.000        2624.67     
  1187.97        500.000        2624.78     
  1185.46        500.000        2624.89     
  1182.96        500.000        2624.99     
  1180.45        500.000        2625.10     
  1177.94        500.000        2625.21     
  1175.44        500.000        2625.32     
  1172.93        500.000        2625.43     
  1170.43        500.000        2625.54     
  1167.92        500.000        2625.65     
  1165.41        500.000        2625.76     
  1162.91        500.000        2625.87     
  1160.40        500.000        2625.98     
  1157.89        500.000        2626.09     
  1155.39        500.000        2626.19     
  1152.88        500.000        2626.30     
  1150.38        500.000        2626.41     
  1147.87        500.000        2626.52     
  1145.36        500.000        2626.63     
  1142.86        500.000        2626.74     
  1140.35        500.000        2626.85     
  1137.84        500.000        2626.95     
  1135.34        500.000        2627.06     
  1132.83        500.000        2627.17     
  1130.33        500.000        2627.28     
  1127.82        500.000        2627.39     
  1125.31        500.000        2627.50     
  1122.81        500.000        2627.60     
  1120.30        500.000        2627.71     
  1117.79        500.000        2627.82     
  1115.29        500.000        2627.93     
  1112.78        500.000        2628.03     
  1110.28        500.000        2628.14     
  1107.77        500.000        2628.25     
  1105.26        500.000        2628.36     
  1102.76        500.000        2628.47     
  1100.25        500.000        2628.57     
  1097.74        500.000        2628.68     
  1095.24        500.000        2628.79     
  1092.73        500.000        2628.90     
  1090.23        500.000        2629.00     
  1087.72        500.000        2629.11     
  1085.21        500.000        2629.22     
  1082.71        500.000        2629.32     
  1080.20        500.000        2629.43     
  1077.69        500.000        2629.54     
  1075.19        500.000        2629.64     
  1072.68        500.000        2629.75     
  1070.18        500.000        2629.86     
  1067.67        500.000        2629.96     
  1065.16        500.000        2630.07     
  1062.66        500.000        2630.18     
  1060.15        500.000        2630.28     
  1057.64        500.000        2630.39     
  1055.14        500.000        2630.49     
  1052.63        500.000        2630.59     
  1050.13        500.000        2630.70     
  1047.62        500.000        2630.80     
  1045.11        500.000        2630.90     
  1042.61        500.000        2631.00     
  1040.10        500.000        2631.10     
  1037.59        500.000        2631.21     
  1035.09        500.000        2631.29     
  1032.58        500.000        2631.41     
  1030.08        500.000        2631.49     
  1027.57        500.000        2631.60     
  1025.06        500.000        2631.70     
  1022.56        500.000        2631.81     
  1020.05        500.000        2631.91     
  1017.54        500.000        2632.02     
  1015.04        500.000        2632.12     
  1012.53        500.000        2632.22     
  1010.03        500.000        2632.32     
  1007.52        500.000        2632.42     
  1005.01        500.000        2632.52     
  1002.51        500.000        2632.62     
  1000.00        500.000        2632.72     
