|6.6.6
Archiving\03_Data\fracLP/QFM_m1.25/GRV/GRV_6.tab                          
           1
T(K)    
  0.000000000000000E+000
  0.000000000000000E+000
           0
           3
T(K)           P(bar)         rho,kg/m3     
  2000.00        500.000        3552.33     
  1997.49        500.000        3552.70     
  1994.99        500.000        3553.07     
  1992.48        500.000        3553.44     
  1989.97        500.000        3553.81     
  1987.47        500.000        3554.18     
  1984.96        500.000        3554.55     
  1982.46        500.000        3554.92     
  1979.95        500.000        3555.29     
  1977.44        500.000        3555.66     
  1974.94        500.000        3556.03     
  1972.43        500.000        3556.40     
  1969.92        500.000        3556.77     
  1967.42        500.000        3557.14     
  1964.91        500.000        3557.50     
  1962.41        500.000        3557.87     
  1959.90        500.000        3558.24     
  1957.39        500.000        3558.61     
  1954.89        500.000        3558.98     
  1952.38        500.000        3559.35     
  1949.87        500.000        3559.72     
  1947.37        500.000        3560.08     
  1944.86        500.000        3560.45     
  1942.36        500.000        3560.82     
  1939.85        500.000        3561.19     
  1937.34        500.000        3561.56     
  1934.84        500.000        3561.92     
  1932.33        500.000        3562.29     
  1929.82        500.000        3562.66     
  1927.32        500.000        3563.03     
  1924.81        500.000        3563.39     
  1922.31        500.000        3563.76     
  1919.80        500.000        3564.13     
  1917.29        500.000        3564.49     
  1914.79        500.000        3564.86     
  1912.28        500.000        3565.23     
  1909.77        500.000        3565.59     
  1907.27        500.000        3565.96     
  1904.76        500.000        3566.32     
  1902.26        500.000        3566.69     
  1899.75        500.000        3567.06     
  1897.24        500.000        3567.42     
  1894.74        500.000        3567.79     
  1892.23        500.000        3568.15     
  1889.72        500.000        3568.52     
  1887.22        500.000        3568.88     
  1884.71        500.000        3569.25     
  1882.21        500.000        3569.61     
  1879.70        500.000        3569.98     
  1877.19        500.000        3570.34     
  1874.69        500.000        3570.71     
  1872.18        500.000        3571.07     
  1869.67        500.000        3571.44     
  1867.17        500.000        3571.80     
  1864.66        500.000        3572.16     
  1862.16        500.000        3572.53     
  1859.65        500.000        3572.89     
  1857.14        500.000        3573.25     
  1854.64        500.000        3573.62     
  1852.13        500.000        3573.98     
  1849.62        500.000        3574.35     
  1847.12        500.000        3574.71     
  1844.61        500.000        3575.07     
  1842.11        500.000        3575.43     
  1839.60        500.000        3575.80     
  1837.09        500.000        3576.16     
  1834.59        500.000        3576.52     
  1832.08        500.000        3576.88     
  1829.57        500.000        3577.25     
  1827.07        500.000        3577.61     
  1824.56        500.000        3577.97     
  1822.06        500.000        3578.33     
  1819.55        500.000        3578.70     
  1817.04        500.000        3579.06     
  1814.54        500.000        3579.42     
  1812.03        500.000        3579.78     
  1809.52        500.000        3591.66     
  1807.02        500.000        3594.76     
  1804.51        500.000        3595.15     
  1802.01        500.000        3595.42     
  1799.50        500.000        3595.68     
  1796.99        500.000        3595.94     
  1794.49        500.000        3596.22     
  1791.98        500.000        3596.46     
  1789.47        500.000        3596.73     
  1786.97        500.000        3597.00     
  1784.46        500.000        3597.26     
  1781.95        500.000        3597.50     
  1779.45        500.000        3597.81     
  1776.94        500.000        3612.36     
  1774.44        500.000        3585.19     
  1771.93        500.000        3596.90     
  1769.42        500.000        3598.83     
  1766.92        500.000        3599.08     
  1764.41        500.000        3599.38     
  1761.90        500.000        3599.64     
  1759.40        500.000        3599.92     
  1756.89        500.000        3600.20     
  1754.39        500.000        3600.49     
  1751.88        500.000        3499.88     
  1749.37        500.000        3271.87     
  1746.87        500.000        3274.29     
  1744.36        500.000        3275.76     
  1741.85        500.000        3276.92     
  1739.35        500.000        3279.04     
  1736.84        500.000        3280.43     
  1734.34        500.000        3281.66     
  1731.83        500.000        3284.98     
  1729.32        500.000        3286.26     
  1726.82        500.000        3287.59     
  1724.31        500.000        3289.10     
  1721.80        500.000        3290.59     
  1719.30        500.000        3292.12     
  1716.79        500.000        3294.38     
  1714.29        500.000        3296.37     
  1711.78        500.000        3297.41     
  1709.27        500.000        3299.13     
  1706.77        500.000        3301.75     
  1704.26        500.000        3302.46     
  1701.75        500.000        3304.47     
  1699.25        500.000        3306.41     
  1696.74        500.000        3306.80     
  1694.24        500.000        3309.64     
  1691.73        500.000        3311.31     
  1689.22        500.000        3311.98     
  1686.72        500.000        3314.23     
  1684.21        500.000        3315.63     
  1681.70        500.000        3316.98     
  1679.20        500.000        3319.27     
  1676.69        500.000        3319.61     
  1674.19        500.000        3321.98     
  1671.68        500.000        3323.38     
  1669.17        500.000        3324.91     
  1666.67        500.000        3326.73     
  1664.16        500.000        3328.43     
  1661.65        500.000        3329.09     
  1659.15        500.000        3330.89     
  1656.64        500.000        3333.08     
  1654.14        500.000        3334.65     
  1651.63        500.000        3335.76     
  1649.12        500.000        3340.40     
  1646.62        500.000        3336.19     
  1644.11        500.000        3337.28     
  1641.60        500.000        3341.50     
  1639.10        500.000        3341.44     
  1636.59        500.000        3343.84     
  1634.09        500.000        3345.79     
  1631.58        500.000        3347.36     
  1629.07        500.000        3348.80     
  1626.57        500.000        3350.25     
  1624.06        500.000        3348.83     
  1621.55        500.000        3230.64     
  1619.05        500.000        3231.09     
  1616.54        500.000        3231.17     
  1614.04        500.000        3233.59     
  1611.53        500.000        3234.50     
  1609.02        500.000        3235.67     
  1606.52        500.000        3236.32     
  1604.01        500.000        3237.55     
  1601.50        500.000        3238.83     
  1599.00        500.000        3239.73     
  1596.49        500.000        3240.71     
  1593.98        500.000        3242.03     
  1591.48        500.000        3243.23     
  1588.97        500.000        3244.41     
  1586.47        500.000        3245.38     
  1583.96        500.000        3246.68     
  1581.45        500.000        3248.05     
  1578.95        500.000        3248.84     
  1576.44        500.000        3250.05     
  1573.93        500.000        3251.30     
  1571.43        500.000        3252.23     
  1568.92        500.000        3253.39     
  1566.42        500.000        3254.85     
  1563.91        500.000        3255.73     
  1561.40        500.000        3257.88     
  1558.90        500.000        3258.74     
  1556.39        500.000        3259.22     
  1553.88        500.000        3261.21     
  1551.38        500.000        3262.59     
  1548.87        500.000        3263.34     
  1546.37        500.000        3264.61     
  1543.86        500.000        3266.08     
  1541.35        500.000        3267.58     
  1538.85        500.000        3268.57     
  1536.34        500.000        3269.94     
  1533.83        500.000        3271.42     
  1531.33        500.000        3272.85     
  1528.82        500.000        3274.10     
  1526.32        500.000        3264.07     
  1523.81        500.000        3260.87     
  1521.30        500.000        3269.86     
  1518.80        500.000        3269.97     
  1516.29        500.000        3259.24     
  1513.78        500.000        3261.43     
  1511.28        500.000        3263.84     
  1508.77        500.000        3266.30     
  1506.27        500.000        3268.25     
  1503.76        500.000        3269.92     
  1501.25        500.000        3272.07     
  1498.75        500.000        3274.32     
  1496.24        500.000        3276.65     
  1493.73        500.000        3278.92     
  1491.23        500.000        3281.02     
  1488.72        500.000        3283.34     
  1486.22        500.000        3286.18     
  1483.71        500.000        3288.32     
  1481.20        500.000        3290.90     
  1478.70        500.000        3291.40     
  1476.19        500.000        3300.79     
  1473.68        500.000        3298.06     
  1471.18        500.000        3300.41     
  1468.67        500.000        3302.89     
  1466.17        500.000        3305.34     
  1463.66        500.000        3307.98     
  1461.15        500.000        3310.50     
  1458.65        500.000        3313.09     
  1456.14        500.000        3315.52     
  1453.63        500.000        3319.53     
  1451.13        500.000        3320.52     
  1448.62        500.000        3325.19     
  1446.12        500.000        3328.60     
  1443.61        500.000        3331.34     
  1441.10        500.000        3333.98     
  1438.60        500.000        3336.34     
  1436.09        500.000        3339.20     
  1433.58        500.000        3341.93     
  1431.08        500.000        3344.71     
  1428.57        500.000        3347.62     
  1426.07        500.000        3350.16     
  1423.56        500.000        3352.68     
  1421.05        500.000        3355.38     
  1418.55        500.000        3358.15     
  1416.04        500.000        3360.99     
  1413.53        500.000        3363.67     
  1411.03        500.000        3366.76     
  1408.52        500.000        3369.50     
  1406.02        500.000        3372.23     
  1403.51        500.000        3375.24     
  1401.00        500.000        3378.10     
  1398.50        500.000        3381.18     
  1395.99        500.000        3383.92     
  1393.48        500.000        3386.99     
  1390.98        500.000        3389.71     
  1388.47        500.000        3392.90     
  1385.96        500.000        3342.10     
  1383.46        500.000        3192.85     
  1380.95        500.000        3197.62     
  1378.45        500.000        3200.39     
  1375.94        500.000        3204.21     
  1373.43        500.000        3207.91     
  1370.93        500.000        3211.75     
  1368.42        500.000        3215.50     
  1365.91        500.000        3219.30     
  1363.41        500.000        3223.38     
  1360.90        500.000        3227.12     
  1358.40        500.000        3231.15     
  1355.89        500.000        3235.15     
  1353.38        500.000        3239.15     
  1350.88        500.000        3243.36     
  1348.37        500.000        3247.03     
  1345.86        500.000        3251.51     
  1343.36        500.000        3255.52     
  1340.85        500.000        3259.45     
  1338.35        500.000        3263.66     
  1335.84        500.000        3296.31     
  1333.33        500.000        3323.80     
  1330.83        500.000        3328.82     
  1328.32        500.000        3344.87     
  1325.81        500.000        3306.09     
  1323.31        500.000        3339.84     
  1320.80        500.000        3371.08     
  1318.30        500.000        3366.46     
  1315.79        500.000        3366.58     
  1313.28        500.000        3369.49     
  1310.78        500.000        3372.61     
  1308.27        500.000        3375.21     
  1305.76        500.000        3387.16     
  1303.26        500.000        3417.78     
  1300.75        500.000        3394.39     
  1298.25        500.000        3274.62     
  1295.74        500.000        3381.78     
  1293.23        500.000        3409.23     
  1290.73        500.000        3411.56     
  1288.22        500.000        3413.92     
  1285.71        500.000        3415.20     
  1283.21        500.000        3417.30     
  1280.70        500.000        3419.58     
  1278.20        500.000        3421.32     
  1275.69        500.000        3422.79     
  1273.18        500.000        3424.32     
  1270.68        500.000        3425.90     
  1268.17        500.000        3427.17     
  1265.66        500.000        3428.65     
  1263.16        500.000        3430.01     
  1260.65        500.000        3430.85     
  1258.15        500.000        3431.89     
  1255.64        500.000        3433.01     
  1253.13        500.000        3433.64     
  1250.63        500.000        3434.62     
  1248.12        500.000        2961.82     
  1245.61        500.000        2902.43     
  1243.11        500.000        2901.76     
  1240.60        500.000        2902.11     
  1238.10        500.000        2902.26     
  1235.59        500.000        2902.10     
  1233.08        500.000        2901.82     
  1230.58        500.000        2901.05     
  1228.07        500.000        2900.09     
  1225.56        500.000        2899.14     
  1223.06        500.000        2897.75     
  1220.55        500.000        2896.27     
  1218.05        500.000        2894.72     
  1215.54        500.000        2778.15     
  1213.03        500.000        2696.94     
  1210.53        500.000        2695.34     
  1208.02        500.000        2699.21     
  1205.51        500.000        2689.11     
  1203.01        500.000        3138.30     
  1200.50        500.000        2761.41     
  1197.99        500.000        2708.16     
  1195.49        500.000        2676.83     
  1192.98        500.000        2683.99     
  1190.48        500.000        2677.81     
  1187.97        500.000        2656.82     
  1185.46        500.000        2642.01     
  1182.96        500.000        2642.16     
  1180.45        500.000        2642.24     
  1177.94        500.000        2638.67     
  1175.44        500.000        2638.62     
  1172.93        500.000        2638.60     
  1170.43        500.000        2638.61     
  1167.92        500.000        2637.94     
  1165.41        500.000        2638.66     
  1162.91        500.000        2638.69     
  1160.40        500.000        2638.76     
  1157.89        500.000        2638.39     
  1155.39        500.000        2638.83     
  1152.88        500.000        2638.60     
  1150.38        500.000        2638.95     
  1147.87        500.000        2638.83     
  1145.36        500.000        2639.08     
  1142.86        500.000        2639.13     
  1140.35        500.000        2639.17     
  1137.84        500.000        2639.27     
  1135.34        500.000        2639.35     
  1132.83        500.000        2639.32     
  1130.33        500.000        2639.39     
  1127.82        500.000        2639.57     
  1125.31        500.000        2639.64     
  1122.81        500.000        2639.74     
  1120.30        500.000        2639.81     
  1117.79        500.000        2639.88     
  1115.29        500.000        2639.95     
  1112.78        500.000        2640.05     
  1110.28        500.000        2640.13     
  1107.77        500.000        2640.11     
  1105.26        500.000        2640.21     
  1102.76        500.000        2640.32     
  1100.25        500.000        2640.43     
  1097.74        500.000        2640.54     
  1095.24        500.000        2640.65     
  1092.73        500.000        2640.76     
  1090.23        500.000        2640.87     
  1087.72        500.000        2640.97     
  1085.21        500.000        2641.08     
  1082.71        500.000        2641.02     
  1080.20        500.000        2641.13     
  1077.69        500.000        2641.24     
  1075.19        500.000        2641.35     
  1072.68        500.000        2641.45     
  1070.18        500.000        2641.56     
  1067.67        500.000        2641.67     
  1065.16        500.000        2641.78     
  1062.66        500.000        2641.89     
  1060.15        500.000        2641.99     
  1057.64        500.000        2642.10     
  1055.14        500.000        2642.21     
  1052.63        500.000        2642.32     
  1050.13        500.000        2642.10     
  1047.62        500.000        2642.21     
  1045.11        500.000        2642.31     
  1042.61        500.000        2642.42     
  1040.10        500.000        2642.53     
  1037.59        500.000        2642.63     
  1035.09        500.000        2642.74     
  1032.58        500.000        2642.83     
  1030.08        500.000        2642.94     
  1027.57        500.000        2643.05     
  1025.06        500.000        2643.15     
  1022.56        500.000        2643.26     
  1020.05        500.000        2643.37     
  1017.54        500.000        2643.47     
  1015.04        500.000        2643.58     
  1012.53        500.000        2643.68     
  1010.03        500.000        2643.64     
  1007.52        500.000        2643.75     
  1005.01        500.000        2643.85     
  1002.51        500.000        2643.96     
  1000.00        500.000        2644.07     
