|6.6.6
Archiving\03_Data\fracLP/QFM_m3.25/EETA/EETA_6.tab                        
           1
T(K)    
  0.000000000000000E+000
  0.000000000000000E+000
           0
           3
T(K)           P(bar)         rho,kg/m3     
  2000.00        500.000        3616.67     
  1997.49        500.000        3617.05     
  1994.99        500.000        3617.43     
  1992.48        500.000        3617.81     
  1989.97        500.000        3618.20     
  1987.47        500.000        3618.58     
  1984.96        500.000        3618.96     
  1982.46        500.000        3619.34     
  1979.95        500.000        3619.72     
  1977.44        500.000        3620.10     
  1974.94        500.000        3620.48     
  1972.43        500.000        3620.86     
  1969.92        500.000        3621.24     
  1967.42        500.000        3621.62     
  1964.91        500.000        3622.00     
  1962.41        500.000        3622.38     
  1959.90        500.000        3622.75     
  1957.39        500.000        3623.13     
  1954.89        500.000        3623.51     
  1952.38        500.000        3623.89     
  1949.87        500.000        3624.27     
  1947.37        500.000        3624.65     
  1944.86        500.000        3625.03     
  1942.36        500.000        3625.40     
  1939.85        500.000        3625.78     
  1937.34        500.000        3626.16     
  1934.84        500.000        3626.54     
  1932.33        500.000        3626.92     
  1929.82        500.000        3627.29     
  1927.32        500.000        3627.67     
  1924.81        500.000        3628.05     
  1922.31        500.000        3628.43     
  1919.80        500.000        3628.80     
  1917.29        500.000        3629.18     
  1914.79        500.000        3629.56     
  1912.28        500.000        3629.93     
  1909.77        500.000        3630.31     
  1907.27        500.000        3630.69     
  1904.76        500.000        3631.06     
  1902.26        500.000        3631.44     
  1899.75        500.000        3631.81     
  1897.24        500.000        3632.19     
  1894.74        500.000        3632.57     
  1892.23        500.000        3632.94     
  1889.72        500.000        3633.32     
  1887.22        500.000        3633.69     
  1884.71        500.000        3634.07     
  1882.21        500.000        3634.44     
  1879.70        500.000        3634.82     
  1877.19        500.000        3635.19     
  1874.69        500.000        3635.57     
  1872.18        500.000        3635.94     
  1869.67        500.000        3636.31     
  1867.17        500.000        3636.69     
  1864.66        500.000        3637.06     
  1862.16        500.000        3637.44     
  1859.65        500.000        3637.81     
  1857.14        500.000        3638.18     
  1854.64        500.000        3638.56     
  1852.13        500.000        3638.93     
  1849.62        500.000        3639.31     
  1847.12        500.000        3639.68     
  1844.61        500.000        3640.05     
  1842.11        500.000        3640.42     
  1839.60        500.000        3640.80     
  1837.09        500.000        3641.17     
  1834.59        500.000        3641.54     
  1832.08        500.000        3641.92     
  1829.57        500.000        3642.29     
  1827.07        500.000        3642.66     
  1824.56        500.000        3643.03     
  1822.06        500.000        3643.40     
  1819.55        500.000        3643.78     
  1817.04        500.000        3644.15     
  1814.54        500.000        3644.52     
  1812.03        500.000        3644.89     
  1809.52        500.000        3645.26     
  1807.02        500.000        3645.63     
  1804.51        500.000        3646.00     
  1802.01        500.000        3646.37     
  1799.50        500.000        3646.75     
  1796.99        500.000        3647.12     
  1794.49        500.000        3647.49     
  1791.98        500.000        3647.86     
  1789.47        500.000        3648.23     
  1786.97        500.000        3648.60     
  1784.46        500.000        3648.97     
  1781.95        500.000        3649.34     
  1779.45        500.000        3649.71     
  1776.94        500.000        3650.08     
  1774.44        500.000        3650.45     
  1771.93        500.000        3650.82     
  1769.42        500.000        3651.18     
  1766.92        500.000        3651.55     
  1764.41        500.000        3651.92     
  1761.90        500.000        3652.29     
  1759.40        500.000        3652.66     
  1756.89        500.000        3653.03     
  1754.39        500.000        3653.40     
  1751.88        500.000        3653.77     
  1749.37        500.000        3654.13     
  1746.87        500.000        3654.50     
  1744.36        500.000        3654.87     
  1741.85        500.000        3655.24     
  1739.35        500.000        3655.61     
  1736.84        500.000        3655.97     
  1734.34        500.000        3656.34     
  1731.83        500.000        3656.71     
  1729.32        500.000        3657.08     
  1726.82        500.000        3657.44     
  1724.31        500.000        3657.81     
  1721.80        500.000        3658.18     
  1719.30        500.000        3658.54     
  1716.79        500.000        3658.91     
  1714.29        500.000        3659.28     
  1711.78        500.000        3659.64     
  1709.27        500.000        3660.01     
  1706.77        500.000        3660.38     
  1704.26        500.000        3660.74     
  1701.75        500.000        3661.11     
  1699.25        500.000        3661.47     
  1696.74        500.000        3661.84     
  1694.24        500.000        3662.20     
  1691.73        500.000        3662.57     
  1689.22        500.000        3662.94     
  1686.72        500.000        3663.30     
  1684.21        500.000        3663.67     
  1681.70        500.000        3664.03     
  1679.20        500.000        3664.40     
  1676.69        500.000        3664.76     
  1674.19        500.000        3665.12     
  1671.68        500.000        3665.49     
  1669.17        500.000        3665.85     
  1666.67        500.000        3666.22     
  1664.16        500.000        3666.58     
  1661.65        500.000        3666.95     
  1659.15        500.000        3667.31     
  1656.64        500.000        3667.67     
  1654.14        500.000        3668.04     
  1651.63        500.000        3668.40     
  1649.12        500.000        3668.76     
  1646.62        500.000        3669.13     
  1644.11        500.000        3669.49     
  1641.60        500.000        3671.60     
  1639.10        500.000        3696.19     
  1636.59        500.000        3670.58     
  1634.09        500.000        3673.12     
  1631.58        500.000        3676.31     
  1629.07        500.000        3679.92     
  1626.57        500.000        3680.21     
  1624.06        500.000        3679.77     
  1621.55        500.000        3681.53     
  1619.05        500.000        3573.80     
  1616.54        500.000        4507.56     
  1614.04        500.000        4507.38     
  1611.53        500.000        3389.40     
  1609.02        500.000        3444.90     
  1606.52        500.000        3407.69     
  1604.01        500.000        3410.24     
  1601.50        500.000        4507.40     
  1599.00        500.000        3412.15     
  1596.49        500.000        3423.26     
  1593.98        500.000        3416.74     
  1591.48        500.000        3419.03     
  1588.97        500.000        3421.06     
  1586.47        500.000        3421.53     
  1583.96        500.000        3423.45     
  1581.45        500.000        3426.90     
  1578.95        500.000        3428.63     
  1576.44        500.000        3430.28     
  1573.93        500.000        3429.98     
  1571.43        500.000        2878.35     
  1568.92        500.000        3427.44     
  1566.42        500.000        3437.38     
  1563.91        500.000        3438.59     
  1561.40        500.000        3440.19     
  1558.90        500.000        3442.20     
  1556.39        500.000        3445.67     
  1553.88        500.000        3446.29     
  1551.38        500.000        3447.96     
  1548.87        500.000        3447.79     
  1546.37        500.000        3452.38     
  1543.86        500.000        3453.89     
  1541.35        500.000        3455.39     
  1538.85        500.000        3457.62     
  1536.34        500.000        3427.85     
  1533.83        500.000        3293.10     
  1531.33        500.000        3294.34     
  1528.82        500.000        3294.30     
  1526.32        500.000        3295.11     
  1523.81        500.000        3296.83     
  1521.30        500.000        3297.59     
  1518.80        500.000        3302.50     
  1516.29        500.000        3301.54     
  1513.78        500.000        3303.47     
  1511.28        500.000        3302.10     
  1508.77        500.000        3303.63     
  1506.27        500.000        3305.12     
  1503.76        500.000        3306.42     
  1501.25        500.000        3306.93     
  1498.75        500.000        3301.72     
  1496.24        500.000        3294.33     
  1493.73        500.000        3301.18     
  1491.23        500.000        3297.71     
  1488.72        500.000        3299.42     
  1486.22        500.000        3300.63     
  1483.71        500.000        3302.33     
  1481.20        500.000        3303.54     
  1478.70        500.000        3305.58     
  1476.19        500.000        3307.45     
  1473.68        500.000        3308.61     
  1471.18        500.000        3310.28     
  1468.67        500.000        3311.15     
  1466.17        500.000        3292.41     
  1463.66        500.000        3292.96     
  1461.15        500.000        3293.60     
  1458.65        500.000        3299.04     
  1456.14        500.000        3301.23     
  1453.63        500.000        3303.45     
  1451.13        500.000        3305.56     
  1448.62        500.000        3307.91     
  1446.12        500.000        3310.22     
  1443.61        500.000        3312.56     
  1441.10        500.000        3315.07     
  1438.60        500.000        3317.17     
  1436.09        500.000        3319.62     
  1433.58        500.000        3322.00     
  1431.08        500.000        3324.53     
  1428.57        500.000        3326.94     
  1426.07        500.000        3329.19     
  1423.56        500.000        3331.82     
  1421.05        500.000        3334.28     
  1418.55        500.000        3336.47     
  1416.04        500.000        3338.76     
  1413.53        500.000        3341.87     
  1411.03        500.000        3344.08     
  1408.52        500.000        3210.52     
  1406.02        500.000        3153.33     
  1403.51        500.000        3156.23     
  1401.00        500.000        3159.36     
  1398.50        500.000        3162.47     
  1395.99        500.000        3165.69     
  1393.48        500.000        3168.80     
  1390.98        500.000        3172.09     
  1388.47        500.000        3175.37     
  1385.96        500.000        3178.64     
  1383.46        500.000        3181.80     
  1380.95        500.000        3185.10     
  1378.45        500.000        3188.43     
  1375.94        500.000        3191.83     
  1373.43        500.000        3194.93     
  1370.93        500.000        3198.45     
  1368.42        500.000        3201.55     
  1365.91        500.000        3205.03     
  1363.41        500.000        3208.57     
  1360.90        500.000        3211.81     
  1358.40        500.000        3215.28     
  1355.89        500.000        3218.57     
  1353.38        500.000        3222.05     
  1350.88        500.000        3225.51     
  1348.37        500.000        3228.88     
  1345.86        500.000        3232.37     
  1343.36        500.000        3235.73     
  1340.85        500.000        3253.39     
  1338.35        500.000        3279.26     
  1335.84        500.000        3283.13     
  1333.33        500.000        3286.44     
  1330.83        500.000        3289.46     
  1328.32        500.000        3292.36     
  1325.81        500.000        3285.74     
  1323.31        500.000        3301.21     
  1320.80        500.000        3301.55     
  1318.30        500.000        3304.21     
  1315.79        500.000        3306.58     
  1313.28        500.000        3308.95     
  1310.78        500.000        3334.38     
  1308.27        500.000        3351.60     
  1305.76        500.000        3353.69     
  1303.26        500.000        3355.95     
  1300.75        500.000        3329.52     
  1298.25        500.000        3396.29     
  1295.74        500.000        3361.33     
  1293.23        500.000        3362.79     
  1290.73        500.000        3364.48     
  1288.22        500.000        3365.22     
  1285.71        500.000        3369.64     
  1283.21        500.000        3368.02     
  1280.70        500.000        3369.04     
  1278.20        500.000        3370.12     
  1275.69        500.000        3371.17     
  1273.18        500.000        3372.57     
  1270.68        500.000        3370.94     
  1268.17        500.000        3373.72     
  1265.66        500.000        2861.13     
  1263.16        500.000        2859.88     
  1260.65        500.000        2862.49     
  1258.15        500.000        2864.78     
  1255.64        500.000        2866.80     
  1253.13        500.000        2868.39     
  1250.63        500.000        2870.14     
  1248.12        500.000        2871.14     
  1245.61        500.000        2872.01     
  1243.11        500.000        2872.89     
  1240.60        500.000        2873.55     
  1238.10        500.000        2873.73     
  1235.59        500.000        2874.11     
  1233.08        500.000        2874.29     
  1230.58        500.000        2874.64     
  1228.07        500.000        2876.60     
  1225.56        500.000        2874.76     
  1223.06        500.000        2873.39     
  1220.55        500.000        2875.26     
  1218.05        500.000        2873.62     
  1215.54        500.000        2872.82     
  1213.03        500.000        2690.23     
  1210.53        500.000        2686.94     
  1208.02        500.000        2685.93     
  1205.51        500.000        2678.26     
  1203.01        500.000        2680.46     
  1200.50        500.000        2678.06     
  1197.99        500.000        2667.87     
  1195.49        500.000        2662.07     
  1192.98        500.000        2670.46     
  1190.48        500.000        2639.75     
  1187.97        500.000        2631.17     
  1185.46        500.000        2629.75     
  1182.96        500.000        2631.39     
  1180.45        500.000        2631.50     
  1177.94        500.000        2631.60     
  1175.44        500.000        2631.71     
  1172.93        500.000        2627.03     
  1170.43        500.000        2631.88     
  1167.92        500.000        2630.27     
  1165.41        500.000        2632.13     
  1162.91        500.000        2632.24     
  1160.40        500.000        2632.35     
  1157.89        500.000        2632.46     
  1155.39        500.000        2632.56     
  1152.88        500.000        2632.67     
  1150.38        500.000        2632.78     
  1147.87        500.000        2632.88     
  1145.36        500.000        2632.99     
  1142.86        500.000        2633.10     
  1140.35        500.000        2633.21     
  1137.84        500.000        2633.31     
  1135.34        500.000        2633.44     
  1132.83        500.000        2633.55     
  1130.33        500.000        2633.66     
  1127.82        500.000        2631.09     
  1125.31        500.000        2633.90     
  1122.81        500.000        2633.96     
  1120.30        500.000        2634.08     
  1117.79        500.000        2631.74     
  1115.29        500.000        2634.29     
  1112.78        500.000        2634.40     
  1110.28        500.000        2631.34     
  1107.77        500.000        2631.41     
  1105.26        500.000        2631.49     
  1102.76        500.000        2631.56     
  1100.25        500.000        2631.64     
  1097.74        500.000        2631.71     
  1095.24        500.000        2631.79     
  1092.73        500.000        2631.86     
  1090.23        500.000        2631.94     
  1087.72        500.000        2632.02     
  1085.21        500.000        2632.10     
  1082.71        500.000        2632.18     
  1080.20        500.000        2632.26     
  1077.69        500.000        2632.34     
  1075.19        500.000        2632.42     
  1072.68        500.000        2632.50     
  1070.18        500.000        2632.58     
  1067.67        500.000        2632.66     
  1065.16        500.000        2632.74     
  1062.66        500.000        2632.82     
  1060.15        500.000        2632.91     
  1057.64        500.000        2632.99     
  1055.14        500.000        2633.07     
  1052.63        500.000        2633.16     
  1050.13        500.000        2633.24     
  1047.62        500.000        2633.32     
  1045.11        500.000        2633.41     
  1042.61        500.000        2633.49     
  1040.10        500.000        2633.58     
  1037.59        500.000        2633.66     
  1035.09        500.000        2633.75     
  1032.58        500.000        2633.83     
  1030.08        500.000        2633.92     
  1027.57        500.000        2634.01     
  1025.06        500.000        2634.09     
  1022.56        500.000        2634.18     
  1020.05        500.000        2634.27     
  1017.54        500.000        2634.35     
  1015.04        500.000        2634.44     
  1012.53        500.000        2634.53     
  1010.03        500.000        2634.62     
  1007.52        500.000        2634.70     
  1005.01        500.000        2634.14     
  1002.51        500.000        2634.24     
  1000.00        500.000        2634.97     
