|6.6.6
Archiving\03_Data\eqfracLP/QFM/LAR/LAR_6.tab                              
           1
T(K)    
  0.000000000000000E+000
  0.000000000000000E+000
           0
           3
T(K)           P(bar)         rho,kg/m3     
  1384.62        500.000        3763.33     
  1383.66        500.000        3325.48     
  1382.69        500.000        3322.83     
  1381.73        500.000        3323.83     
  1380.76        500.000        3204.25     
  1379.80        500.000        3148.54     
  1378.84        500.000        3147.84     
  1377.87        500.000        3148.53     
  1376.91        500.000        3155.32     
  1375.94        500.000        3160.71     
  1374.98        500.000        3161.84     
  1374.02        500.000        3163.00     
  1373.05        500.000        3163.77     
  1372.09        500.000        3165.43     
  1371.12        500.000        3166.65     
  1370.16        500.000        3168.00     
  1369.20        500.000        3169.20     
  1368.23        500.000        3170.57     
  1367.27        500.000        3171.83     
  1366.30        500.000        3172.97     
  1365.34        500.000        3174.38     
  1364.38        500.000        3175.48     
  1363.41        500.000        3176.70     
  1362.45        500.000        3181.38     
  1361.48        500.000        3234.01     
  1360.52        500.000        3192.64     
  1359.56        500.000        3181.79     
  1358.59        500.000        3182.94     
  1357.63        500.000        3184.47     
  1356.67        500.000        3185.59     
  1355.70        500.000        3187.83     
  1354.74        500.000        3188.03     
  1353.77        500.000        3189.38     
  1352.81        500.000        3185.68     
  1351.85        500.000        3193.47     
  1350.88        500.000        3194.14     
  1349.92        500.000        3194.85     
  1348.95        500.000        3197.25     
  1347.99        500.000        3197.20     
  1347.03        500.000        3198.93     
  1346.06        500.000        3200.03     
  1345.10        500.000        3198.15     
  1344.13        500.000        3206.33     
  1343.17        500.000        3202.19     
  1342.21        500.000        3207.62     
  1341.24        500.000        3206.84     
  1340.28        500.000        3208.36     
  1339.31        500.000        3209.60     
  1338.35        500.000        3211.10     
  1337.39        500.000        3217.00     
  1336.42        500.000        3213.56     
  1335.46        500.000        3214.74     
  1334.49        500.000        3216.18     
  1333.53        500.000        3217.52     
  1332.57        500.000        3218.97     
  1331.60        500.000        3219.97     
  1330.64        500.000        3221.84     
  1329.67        500.000        3223.29     
  1328.71        500.000        3224.29     
  1327.75        500.000        3225.66     
  1326.78        500.000        3226.99     
  1325.82        500.000        3228.35     
  1324.85        500.000        3229.66     
  1323.89        500.000        3230.94     
  1322.93        500.000        3232.29     
  1321.96        500.000        3233.59     
  1321.00        500.000        3234.96     
  1320.03        500.000        3236.26     
  1319.07        500.000        3237.44     
  1318.11        500.000        3238.54     
  1317.14        500.000        3240.01     
  1316.18        500.000        3241.22     
  1315.21        500.000        3242.91     
  1314.25        500.000        3246.43     
  1313.29        500.000        3254.12     
  1312.32        500.000        3257.49     
  1311.36        500.000        3260.17     
  1310.40        500.000        3264.40     
  1309.43        500.000        3268.38     
  1308.47        500.000        3273.40     
  1307.50        500.000        3279.07     
  1306.54        500.000        3301.36     
  1305.58        500.000        3287.77     
  1304.61        500.000        3300.74     
  1303.65        500.000        3307.18     
  1302.68        500.000        3320.42     
  1301.72        500.000        3329.68     
  1300.76        500.000        3335.88     
  1299.79        500.000        3344.82     
  1298.83        500.000        3347.57     
  1297.86        500.000        3352.65     
  1296.90        500.000        3355.96     
  1295.94        500.000        3357.90     
  1294.97        500.000        3361.31     
  1294.01        500.000        3362.35     
  1293.04        500.000        3363.27     
  1292.08        500.000        3364.08     
  1291.12        500.000        3365.15     
  1290.15        500.000        3366.11     
  1289.19        500.000        3365.72     
  1288.22        500.000        3367.08     
  1287.26        500.000        3366.11     
  1286.30        500.000        3367.67     
  1285.33        500.000        3366.45     
  1284.37        500.000        3367.24     
  1283.40        500.000        3366.73     
  1282.44        500.000        3366.69     
  1281.48        500.000        3366.77     
  1280.51        500.000        3366.42     
  1279.55        500.000        3366.50     
  1278.58        500.000        3366.10     
  1277.62        500.000        3366.12     
  1276.66        500.000        3365.95     
  1275.69        500.000        3365.57     
  1274.73        500.000        3365.40     
  1273.76        500.000        3365.01     
  1272.80        500.000        3364.75     
  1271.84        500.000        2900.15     
  1270.87        500.000        2841.55     
  1269.91        500.000        2841.94     
  1268.94        500.000        2842.36     
  1267.98        500.000        2842.79     
  1267.02        500.000        2843.16     
  1266.05        500.000        2843.57     
  1265.09        500.000        2843.99     
  1264.13        500.000        2844.38     
  1263.16        500.000        2844.80     
  1262.20        500.000        2845.17     
  1261.23        500.000        2845.50     
  1260.27        500.000        2845.91     
  1259.31        500.000        2846.20     
  1258.34        500.000        2846.50     
  1257.38        500.000        2846.79     
  1256.41        500.000        2847.05     
  1255.45        500.000        2847.31     
  1254.49        500.000        2847.51     
  1253.52        500.000        2847.56     
  1252.56        500.000        2847.86     
  1251.59        500.000        2847.92     
  1250.63        500.000        2847.87     
  1249.67        500.000        2848.05     
  1248.70        500.000        2848.04     
  1247.74        500.000        2848.01     
  1246.77        500.000        2847.82     
  1245.81        500.000        2847.85     
  1244.85        500.000        2847.65     
  1243.88        500.000        2847.41     
  1242.92        500.000        2847.32     
  1241.95        500.000        2847.21     
  1240.99        500.000        2838.54     
  1240.03        500.000        2836.32     
  1239.06        500.000        2836.09     
  1238.10        500.000        2835.85     
  1237.13        500.000        2818.47     
  1236.17        500.000        2865.89     
  1235.21        500.000        2842.07     
  1234.24        500.000        2859.28     
  1233.28        500.000        2824.96     
  1232.31        500.000        2902.01     
  1231.35        500.000        2802.55     
  1230.39        500.000        2735.18     
  1229.42        500.000        2826.24     
  1228.46        500.000        2841.45     
  1227.49        500.000        3014.45     
  1226.53        500.000        2680.67     
  1225.57        500.000        2799.04     
  1224.60        500.000        2842.26     
  1223.64        500.000        2781.93     
  1222.67        500.000        2929.22     
  1221.71        500.000        2816.86     
  1220.75        500.000        3512.93     
  1219.78        500.000        2801.71     
  1218.82        500.000        2825.52     
  1217.85        500.000        2646.58     
  1216.89        500.000        2951.13     
  1215.93        500.000        2742.98     
  1214.96        500.000        2819.73     
  1214.00        500.000        2453.42     
  1213.04        500.000        2826.73     
  1212.07        500.000        2815.12     
  1211.11        500.000        2824.22     
  1210.14        500.000        2812.39     
  1209.18        500.000        2829.75     
  1208.22        500.000        2888.86     
  1207.25        500.000        2667.80     
  1206.29        500.000        2771.18     
  1205.32        500.000        2814.83     
  1204.36        500.000        2824.02     
  1203.40        500.000        3456.12     
  1202.43        500.000        2811.87     
  1201.47        500.000        2717.51     
  1200.50        500.000        2814.93     
  1199.54        500.000        2836.05     
  1198.58        500.000        3871.58     
  1197.61        500.000        2732.18     
  1196.65        500.000        2662.55     
  1195.68        500.000        2992.38     
  1194.72        500.000        2579.77     
  1193.76        500.000        2847.79     
  1192.79        500.000        2666.81     
  1191.83        500.000        2640.73     
  1190.86        500.000        2649.81     
  1189.90        500.000        2629.29     
  1188.94        500.000        2650.93     
  1187.97        500.000        2629.87     
  1187.01        500.000        2620.70     
  1186.04        500.000        2621.08     
  1185.08        500.000        2621.07     
  1184.12        500.000        2621.12     
  1183.15        500.000        2621.17     
  1182.19        500.000        2621.22     
  1181.22        500.000        2621.27     
  1180.26        500.000        2621.32     
  1179.30        500.000        2621.37     
  1178.33        500.000        2621.41     
  1177.37        500.000        2621.46     
  1176.40        500.000        2621.51     
  1175.44        500.000        2621.56     
  1174.48        500.000        2621.61     
  1173.51        500.000        2621.66     
  1172.55        500.000        2621.54     
  1171.58        500.000        2621.75     
  1170.62        500.000        2621.80     
  1169.66        500.000        2621.85     
  1168.69        500.000        2621.90     
  1167.73        500.000        2621.85     
  1166.77        500.000        2621.90     
  1165.80        500.000        2621.95     
  1164.84        500.000        2621.99     
  1163.87        500.000        2622.14     
  1162.91        500.000        2622.08     
  1161.95        500.000        2622.13     
  1160.98        500.000        2622.17     
  1160.02        500.000        2622.22     
  1159.05        500.000        2622.27     
  1158.09        500.000        2622.31     
  1157.13        500.000        2622.48     
  1156.16        500.000        2622.53     
  1155.20        500.000        2622.57     
  1154.23        500.000        2622.62     
  1153.27        500.000        2622.67     
  1152.31        500.000        2622.72     
  1151.34        500.000        2622.63     
  1150.38        500.000        2622.68     
  1149.41        500.000        2622.86     
  1148.45        500.000        2622.91     
  1147.49        500.000        2622.95     
  1146.52        500.000        2622.99     
  1145.56        500.000        2623.04     
  1144.59        500.000        2623.09     
  1143.63        500.000        2623.13     
  1142.67        500.000        2623.18     
  1141.70        500.000        2623.21     
  1140.74        500.000        2623.26     
  1139.77        500.000        2623.30     
  1138.81        500.000        2623.34     
  1137.85        500.000        2623.39     
  1136.88        500.000        2623.43     
  1135.92        500.000        2623.47     
  1134.95        500.000        2623.33     
  1133.99        500.000        2623.37     
  1133.03        500.000        2623.42     
  1132.06        500.000        2623.46     
  1131.10        500.000        2623.51     
  1130.13        500.000        2623.55     
  1129.17        500.000        2623.60     
  1128.21        500.000        2623.64     
  1127.24        500.000        2623.69     
  1126.28        500.000        2623.73     
  1125.31        500.000        2623.78     
  1124.35        500.000        2623.82     
  1123.39        500.000        2623.87     
  1122.42        500.000        2623.91     
  1121.46        500.000        2623.96     
  1120.49        500.000        2624.00     
  1119.53        500.000        2624.16     
  1118.57        500.000        2624.24     
  1117.60        500.000        2624.37     
  1116.64        500.000        2624.41     
  1115.68        500.000        2624.35     
  1114.71        500.000        2624.39     
  1113.75        500.000        2624.44     
  1112.78        500.000        2624.49     
  1111.82        500.000        2624.53     
  1110.86        500.000        2624.58     
  1109.89        500.000        2624.63     
  1108.93        500.000        2624.67     
  1107.96        500.000        2624.72     
  1107.00        500.000        2624.77     
  1106.04        500.000        2624.81     
  1105.07        500.000        2624.86     
  1104.11        500.000        2625.19     
  1103.14        500.000        2624.95     
  1102.18        500.000        2625.00     
  1101.22        500.000        2625.34     
  1100.25        500.000        2625.41     
  1099.29        500.000        2625.46     
  1098.32        500.000        2625.53     
  1097.36        500.000        2625.58     
  1096.40        500.000        2625.63     
  1095.43        500.000        2625.70     
  1094.47        500.000        2625.74     
  1093.50        500.000        2625.82     
  1092.54        500.000        2625.87     
  1091.58        500.000        2625.91     
  1090.61        500.000        2625.97     
  1089.65        500.000        2626.03     
  1088.68        500.000        2625.64     
  1087.72        500.000        2625.68     
  1086.76        500.000        2625.72     
  1085.79        500.000        2625.70     
  1084.83        500.000        2625.80     
  1083.86        500.000        2625.84     
  1082.90        500.000        2625.89     
  1081.94        500.000        2625.93     
  1080.97        500.000        2625.97     
  1080.01        500.000        2625.98     
  1079.04        500.000        2625.99     
  1078.08        500.000        2626.03     
  1077.12        500.000        2626.13     
  1076.15        500.000        2626.15     
  1075.19        500.000        2626.21     
  1074.22        500.000        2626.25     
  1073.26        500.000        2626.27     
  1072.30        500.000        2626.34     
  1071.33        500.000        2626.37     
  1070.37        500.000        2626.41     
  1069.41        500.000        2626.45     
  1068.44        500.000        2626.48     
  1067.48        500.000        2626.51     
  1066.51        500.000        2626.55     
  1065.55        500.000        2627.48     
  1064.59        500.000        2627.54     
  1063.62        500.000        2627.59     
  1062.66        500.000        2627.65     
  1061.69        500.000        2627.69     
  1060.73        500.000        2627.76     
  1059.77        500.000        2627.82     
  1058.80        500.000        2627.88     
  1057.84        500.000        2627.93     
  1056.87        500.000        2627.99     
  1055.91        500.000        2627.11     
  1054.95        500.000        2628.10     
  1053.98        500.000        2628.16     
  1053.02        500.000        2627.92     
  1052.05        500.000        2628.04     
  1051.09        500.000        2628.33     
  1050.13        500.000        2628.39     
  1049.16        500.000        2628.45     
  1048.20        500.000        2628.35     
  1047.23        500.000        2628.56     
  1046.27        500.000        2628.61     
  1045.31        500.000        2628.66     
  1044.34        500.000        2628.20     
  1043.38        500.000        2628.77     
  1042.41        500.000        2628.82     
  1041.45        500.000        2628.88     
  1040.49        500.000        2628.93     
  1039.52        500.000        2629.01     
  1038.56        500.000        2629.07     
  1037.59        500.000        2629.13     
  1036.63        500.000        2629.18     
  1035.67        500.000        2629.20     
  1034.70        500.000        2629.25     
  1033.74        500.000        2629.35     
  1032.77        500.000        2629.41     
  1031.81        500.000        2629.46     
  1030.85        500.000        2629.52     
  1029.88        500.000        2629.58     
  1028.92        500.000        2629.63     
  1027.95        500.000        2629.69     
  1026.99        500.000        2629.75     
  1026.03        500.000        2629.80     
  1025.06        500.000        2629.86     
  1024.10        500.000        2629.92     
  1023.14        500.000        2629.95     
  1022.17        500.000        2630.04     
  1021.21        500.000        2630.09     
  1020.24        500.000        2630.14     
  1019.28        500.000        2630.19     
  1018.32        500.000        2630.26     
  1017.35        500.000        2630.32     
  1016.39        500.000        2630.38     
  1015.42        500.000        2630.43     
  1014.46        500.000        2630.49     
  1013.50        500.000        2630.54     
  1012.53        500.000        2630.59     
  1011.57        500.000        2630.65     
  1010.60        500.000        2630.71     
  1009.64        500.000        2630.76     
  1008.68        500.000        2630.82     
  1007.71        500.000        2630.87     
  1006.75        500.000        2630.79     
  1005.78        500.000        2630.84     
  1004.82        500.000        2631.04     
  1003.86        500.000        2631.10     
  1002.89        500.000        2630.55     
  1001.93        500.000        2631.21     
  1000.96        500.000        2631.14     
  1000.00        500.000        2631.20     
