|6.6.6
Archiving\03_Data\fracLP/QFM_m0.75/TAY13/TAY13_6.tab                      
           1
T(K)    
  0.000000000000000E+000
  0.000000000000000E+000
           0
           3
T(K)           P(bar)         rho,kg/m3     
  2000.00        500.000        5053.94     
  1997.49        500.000        5054.68     
  1994.99        500.000        5055.41     
  1992.48        500.000        5056.15     
  1989.97        500.000        5056.89     
  1987.47        500.000        5057.62     
  1984.96        500.000        5058.36     
  1982.46        500.000        5059.09     
  1979.95        500.000        5059.83     
  1977.44        500.000        5060.56     
  1974.94        500.000        5061.29     
  1972.43        500.000        4127.07     
  1969.92        500.000        2925.73     
  1967.42        500.000        2926.33     
  1964.91        500.000        2926.92     
  1962.41        500.000        2927.52     
  1959.90        500.000        2928.11     
  1957.39        500.000        2928.71     
  1954.89        500.000        2929.30     
  1952.38        500.000        2929.94     
  1949.87        500.000        2930.49     
  1947.37        500.000        2931.08     
  1944.86        500.000        2931.68     
  1942.36        500.000        2932.27     
  1939.85        500.000        2932.87     
  1937.34        500.000        2933.46     
  1934.84        500.000        2934.06     
  1932.33        500.000        2934.65     
  1929.82        500.000        2935.25     
  1927.32        500.000        2935.84     
  1924.81        500.000        2936.44     
  1922.31        500.000        2937.03     
  1919.80        500.000        2937.63     
  1917.29        500.000        2938.22     
  1914.79        500.000        2938.81     
  1912.28        500.000        2939.41     
  1909.77        500.000        2940.00     
  1907.27        500.000        2940.60     
  1904.76        500.000        2941.19     
  1902.26        500.000        2941.79     
  1899.75        500.000        3156.45     
  1897.24        500.000        3158.15     
  1894.74        500.000        3159.73     
  1892.23        500.000        3161.64     
  1889.72        500.000        3162.99     
  1887.22        500.000        3164.80     
  1884.71        500.000        3166.63     
  1882.21        500.000        3168.02     
  1879.70        500.000        3169.63     
  1877.19        500.000        3171.54     
  1874.69        500.000        3173.08     
  1872.18        500.000        3177.39     
  1869.67        500.000        3184.32     
  1867.17        500.000        3178.95     
  1864.66        500.000        3189.59     
  1862.16        500.000        3202.49     
  1859.65        500.000        3204.15     
  1857.14        500.000        3206.52     
  1854.64        500.000        3208.22     
  1852.13        500.000        3209.96     
  1849.62        500.000        3211.93     
  1847.12        500.000        3213.66     
  1844.61        500.000        3215.19     
  1842.11        500.000        3217.39     
  1839.60        500.000        3219.16     
  1837.09        500.000        3221.02     
  1834.59        500.000        3222.79     
  1832.08        500.000        3224.82     
  1829.57        500.000        3226.71     
  1827.07        500.000        3228.69     
  1824.56        500.000        3230.29     
  1822.06        500.000        3232.09     
  1819.55        500.000        3235.61     
  1817.04        500.000        3236.69     
  1814.54        500.000        3238.43     
  1812.03        500.000        3243.92     
  1809.52        500.000        4392.63     
  1807.02        500.000        3242.54     
  1804.51        500.000        3246.09     
  1802.01        500.000        3247.87     
  1799.50        500.000        3249.28     
  1796.99        500.000        3251.33     
  1794.49        500.000        3253.46     
  1791.98        500.000        3255.19     
  1789.47        500.000        3257.79     
  1786.97        500.000        3259.13     
  1784.46        500.000        3261.64     
  1781.95        500.000        3263.22     
  1779.45        500.000        3265.39     
  1776.94        500.000        3267.09     
  1774.44        500.000        3268.70     
  1771.93        500.000        3270.87     
  1769.42        500.000        3273.17     
  1766.92        500.000        3275.39     
  1764.41        500.000        3276.39     
  1761.90        500.000        3278.75     
  1759.40        500.000        3281.05     
  1756.89        500.000        3282.70     
  1754.39        500.000        3284.71     
  1751.88        500.000        3286.51     
  1749.37        500.000        3288.35     
  1746.87        500.000        3290.30     
  1744.36        500.000        3292.80     
  1741.85        500.000        3294.91     
  1739.35        500.000        3297.01     
  1736.84        500.000        3298.91     
  1734.34        500.000        3300.59     
  1731.83        500.000        3302.74     
  1729.32        500.000        3305.13     
  1726.82        500.000        3306.33     
  1724.31        500.000        3309.33     
  1721.80        500.000        3310.73     
  1719.30        500.000        3312.70     
  1716.79        500.000        3314.50     
  1714.29        500.000        3316.77     
  1711.78        500.000        3318.97     
  1709.27        500.000        3321.37     
  1706.77        500.000        3324.10     
  1704.26        500.000        3324.90     
  1701.75        500.000        3327.87     
  1699.25        500.000        3329.40     
  1696.74        500.000        3332.43     
  1694.24        500.000        3333.31     
  1691.73        500.000        3337.02     
  1689.22        500.000        3337.58     
  1686.72        500.000        3339.82     
  1684.21        500.000        3341.51     
  1681.70        500.000        3344.77     
  1679.20        500.000        3345.76     
  1676.69        500.000        3348.45     
  1674.19        500.000        3353.22     
  1671.68        500.000        3351.73     
  1669.17        500.000        3353.09     
  1666.67        500.000        3355.49     
  1664.16        500.000        3358.26     
  1661.65        500.000        3360.56     
  1659.15        500.000        3362.13     
  1656.64        500.000        3364.62     
  1654.14        500.000        3365.91     
  1651.63        500.000        3368.60     
  1649.12        500.000        3370.65     
  1646.62        500.000        3375.05     
  1644.11        500.000        3374.09     
  1641.60        500.000        3377.08     
  1639.10        500.000        3378.13     
  1636.59        500.000        3380.11     
  1634.09        500.000        3382.90     
  1631.58        500.000        3384.77     
  1629.07        500.000        3386.56     
  1626.57        500.000        3388.38     
  1624.06        500.000        3390.67     
  1621.55        500.000        3392.59     
  1619.05        500.000        3394.62     
  1616.54        500.000        3397.01     
  1614.04        500.000        3399.71     
  1611.53        500.000        3399.70     
  1609.02        500.000        3401.89     
  1606.52        500.000        3404.29     
  1604.01        500.000        3406.43     
  1601.50        500.000        3408.73     
  1599.00        500.000        3410.67     
  1596.49        500.000        3413.07     
  1593.98        500.000        3414.21     
  1591.48        500.000        3417.58     
  1588.97        500.000        3418.24     
  1586.47        500.000        3420.11     
  1583.96        500.000        3421.97     
  1581.45        500.000        3423.90     
  1578.95        500.000        3426.81     
  1576.44        500.000        3427.69     
  1573.93        500.000        3430.38     
  1571.43        500.000        3432.15     
  1568.92        500.000        3434.55     
  1566.42        500.000        3435.98     
  1563.91        500.000        3310.06     
  1561.40        500.000        3309.36     
  1558.90        500.000        3298.83     
  1556.39        500.000        3300.09     
  1553.88        500.000        3301.24     
  1551.38        500.000        3302.68     
  1548.87        500.000        3304.30     
  1546.37        500.000        3305.79     
  1543.86        500.000        3306.19     
  1541.35        500.000        3307.41     
  1538.85        500.000        3308.87     
  1536.34        500.000        3310.22     
  1533.83        500.000        3311.59     
  1531.33        500.000        3312.74     
  1528.82        500.000        3314.02     
  1526.32        500.000        3314.89     
  1523.81        500.000        3315.97     
  1521.30        500.000        3317.79     
  1518.80        500.000        3317.33     
  1516.29        500.000        3320.44     
  1513.78        500.000        3320.57     
  1511.28        500.000        3320.85     
  1508.77        500.000        3322.72     
  1506.27        500.000        3323.72     
  1503.76        500.000        3324.93     
  1501.25        500.000        3327.19     
  1498.75        500.000        3327.47     
  1496.24        500.000        3328.95     
  1493.73        500.000        3330.49     
  1491.23        500.000        3331.37     
  1488.72        500.000        3332.73     
  1486.22        500.000        3332.27     
  1483.71        500.000        3333.06     
  1481.20        500.000        3333.87     
  1478.70        500.000        3336.42     
  1476.19        500.000        3336.69     
  1473.68        500.000        3336.94     
  1471.18        500.000        3337.54     
  1468.67        500.000        3340.93     
  1466.17        500.000        3341.07     
  1463.66        500.000        3342.72     
  1461.15        500.000        3344.43     
  1458.65        500.000        3344.23     
  1456.14        500.000        3360.69     
  1453.63        500.000        3346.88     
  1451.13        500.000        3348.51     
  1448.62        500.000        3350.06     
  1446.12        500.000        3351.89     
  1443.61        500.000        3353.82     
  1441.10        500.000        3354.55     
  1438.60        500.000        3356.45     
  1436.09        500.000        3358.00     
  1433.58        500.000        3354.10     
  1431.08        500.000        3344.79     
  1428.57        500.000        3346.74     
  1426.07        500.000        3348.68     
  1423.56        500.000        3350.36     
  1421.05        500.000        3352.65     
  1418.55        500.000        3353.85     
  1416.04        500.000        3355.15     
  1413.53        500.000        3343.05     
  1411.03        500.000        3326.52     
  1408.52        500.000        3329.42     
  1406.02        500.000        3331.89     
  1403.51        500.000        3334.29     
  1401.00        500.000        3336.84     
  1398.50        500.000        3339.29     
  1395.99        500.000        3341.92     
  1393.48        500.000        3344.28     
  1390.98        500.000        3346.88     
  1388.47        500.000        3169.75     
  1385.96        500.000        3157.74     
  1383.46        500.000        3160.79     
  1380.95        500.000        3163.69     
  1378.45        500.000        3166.69     
  1375.94        500.000        3170.11     
  1373.43        500.000        3179.77     
  1370.93        500.000        3201.94     
  1368.42        500.000        3206.37     
  1365.91        500.000        3210.29     
  1363.41        500.000        3215.46     
  1360.90        500.000        3219.97     
  1358.40        500.000        3224.64     
  1355.89        500.000        3229.01     
  1353.38        500.000        3233.65     
  1350.88        500.000        3238.12     
  1348.37        500.000        3242.69     
  1345.86        500.000        3247.25     
  1343.36        500.000        3251.70     
  1340.85        500.000        3256.26     
  1338.35        500.000        3260.64     
  1335.84        500.000        3265.15     
  1333.33        500.000        3258.46     
  1330.83        500.000        3272.77     
  1328.32        500.000        3275.56     
  1325.81        500.000        3280.01     
  1323.31        500.000        3283.42     
  1320.80        500.000        3286.95     
  1318.30        500.000        3290.08     
  1315.79        500.000        3293.46     
  1313.28        500.000        3296.79     
  1310.78        500.000        3300.76     
  1308.27        500.000        3303.30     
  1305.76        500.000        3306.51     
  1303.26        500.000        3309.99     
  1300.75        500.000        3312.46     
  1298.25        500.000        3315.81     
  1295.74        500.000        3318.53     
  1293.23        500.000        3321.54     
  1290.73        500.000        3324.26     
  1288.22        500.000        3327.08     
  1285.71        500.000        3329.86     
  1283.21        500.000        3332.32     
  1280.70        500.000        3334.93     
  1278.20        500.000        3341.08     
  1275.69        500.000        3335.50     
  1273.18        500.000        3342.21     
  1270.68        500.000        3344.64     
  1268.17        500.000        3346.30     
  1265.66        500.000        2936.87     
  1263.16        500.000        2834.74     
  1260.65        500.000        2836.29     
  1258.15        500.000        2841.24     
  1255.64        500.000        2845.95     
  1253.13        500.000        2850.75     
  1250.63        500.000        2855.06     
  1248.12        500.000        2863.24     
  1245.61        500.000        2887.52     
  1243.11        500.000        2888.52     
  1240.60        500.000        2889.21     
  1238.10        500.000        2889.42     
  1235.59        500.000        2889.65     
  1233.08        500.000        2889.76     
  1230.58        500.000        2889.57     
  1228.07        500.000        2889.56     
  1225.56        500.000        2886.45     
  1223.06        500.000        2881.51     
  1220.55        500.000        2882.68     
  1218.05        500.000        2883.84     
  1215.54        500.000        2888.25     
  1213.03        500.000        2887.29     
  1210.53        500.000        2885.77     
  1208.02        500.000        2884.28     
  1205.51        500.000        2701.46     
  1203.01        500.000        2693.95     
  1200.50        500.000        2692.77     
  1197.99        500.000        2689.53     
  1195.49        500.000        2688.37     
  1192.98        500.000        2684.19     
  1190.48        500.000        2673.20     
  1187.97        500.000        2735.66     
  1185.46        500.000        2648.23     
  1182.96        500.000        2641.33     
  1180.45        500.000        2641.39     
  1177.94        500.000        2641.45     
  1175.44        500.000        2641.51     
  1172.93        500.000        2641.16     
  1170.43        500.000        2641.66     
  1167.92        500.000        2641.41     
  1165.41        500.000        2641.48     
  1162.91        500.000        2641.50     
  1160.40        500.000        2641.59     
  1157.89        500.000        2641.68     
  1155.39        500.000        2641.77     
  1152.88        500.000        2641.86     
  1150.38        500.000        2641.95     
  1147.87        500.000        2642.05     
  1145.36        500.000        2642.14     
  1142.86        500.000        2642.23     
  1140.35        500.000        2642.32     
  1137.84        500.000        2642.42     
  1135.34        500.000        2642.51     
  1132.83        500.000        2642.60     
  1130.33        500.000        2642.69     
  1127.82        500.000        2642.79     
  1125.31        500.000        2642.88     
  1122.81        500.000        2642.97     
  1120.30        500.000        2643.07     
  1117.79        500.000        2643.16     
  1115.29        500.000        2643.25     
  1112.78        500.000        2643.34     
  1110.28        500.000        2643.44     
  1107.77        500.000        2643.53     
  1105.26        500.000        2643.63     
  1102.76        500.000        2643.72     
  1100.25        500.000        2643.81     
  1097.74        500.000        2643.91     
  1095.24        500.000        2644.00     
  1092.73        500.000        2644.09     
  1090.23        500.000        2644.19     
  1087.72        500.000        2644.28     
  1085.21        500.000        2644.38     
  1082.71        500.000        2644.47     
  1080.20        500.000        2644.56     
  1077.69        500.000        2644.66     
  1075.19        500.000        2644.75     
  1072.68        500.000        2644.85     
  1070.18        500.000        2644.94     
  1067.67        500.000        2645.04     
  1065.16        500.000        2645.13     
  1062.66        500.000        2645.22     
  1060.15        500.000        2645.32     
  1057.64        500.000        2645.41     
  1055.14        500.000        2645.51     
  1052.63        500.000        2645.60     
  1050.13        500.000        2645.70     
  1047.62        500.000        2645.79     
  1045.11        500.000        2645.88     
  1042.61        500.000        2645.98     
  1040.10        500.000        2646.07     
  1037.59        500.000        2646.17     
  1035.09        500.000        2646.26     
  1032.58        500.000        2646.36     
  1030.08        500.000        2646.45     
  1027.57        500.000        2646.54     
  1025.06        500.000        2648.08     
  1022.56        500.000        2646.78     
  1020.05        500.000        2646.93     
  1017.54        500.000        2646.92     
  1015.04        500.000        2647.07     
  1012.53        500.000        2647.24     
  1010.03        500.000        2647.26     
  1007.52        500.000        2647.39     
  1005.01        500.000        2646.95     
  1002.51        500.000        2647.48     
  1000.00        500.000        2647.58     
