|6.6.6
Archiving\03_Data\fracLP/QFM_m4.25/EETA/EETA_6.tab                        
           1
T(K)    
  0.000000000000000E+000
  0.000000000000000E+000
           0
           3
T(K)           P(bar)         rho,kg/m3     
  2000.00        500.000        3616.67     
  1997.49        500.000        3617.05     
  1994.99        500.000        3617.43     
  1992.48        500.000        3617.81     
  1989.97        500.000        3618.20     
  1987.47        500.000        3618.58     
  1984.96        500.000        3618.96     
  1982.46        500.000        3619.34     
  1979.95        500.000        3619.72     
  1977.44        500.000        3620.10     
  1974.94        500.000        3620.48     
  1972.43        500.000        3620.86     
  1969.92        500.000        3621.24     
  1967.42        500.000        3621.62     
  1964.91        500.000        3622.00     
  1962.41        500.000        3622.38     
  1959.90        500.000        3622.75     
  1957.39        500.000        3623.13     
  1954.89        500.000        3623.51     
  1952.38        500.000        3623.89     
  1949.87        500.000        3624.27     
  1947.37        500.000        3624.65     
  1944.86        500.000        3625.03     
  1942.36        500.000        3625.40     
  1939.85        500.000        3625.78     
  1937.34        500.000        3626.16     
  1934.84        500.000        3626.54     
  1932.33        500.000        3626.92     
  1929.82        500.000        3627.29     
  1927.32        500.000        3627.67     
  1924.81        500.000        3628.05     
  1922.31        500.000        3628.43     
  1919.80        500.000        3628.80     
  1917.29        500.000        3629.18     
  1914.79        500.000        3629.56     
  1912.28        500.000        3629.93     
  1909.77        500.000        3630.31     
  1907.27        500.000        3630.69     
  1904.76        500.000        3631.06     
  1902.26        500.000        3631.44     
  1899.75        500.000        3631.81     
  1897.24        500.000        3632.19     
  1894.74        500.000        3632.57     
  1892.23        500.000        3632.94     
  1889.72        500.000        3633.32     
  1887.22        500.000        3633.69     
  1884.71        500.000        3634.07     
  1882.21        500.000        3634.44     
  1879.70        500.000        3634.82     
  1877.19        500.000        3635.19     
  1874.69        500.000        3635.57     
  1872.18        500.000        3635.94     
  1869.67        500.000        3636.31     
  1867.17        500.000        3636.69     
  1864.66        500.000        3637.06     
  1862.16        500.000        3637.44     
  1859.65        500.000        3637.81     
  1857.14        500.000        3638.18     
  1854.64        500.000        3638.56     
  1852.13        500.000        3638.93     
  1849.62        500.000        3639.31     
  1847.12        500.000        3639.68     
  1844.61        500.000        3640.05     
  1842.11        500.000        3640.42     
  1839.60        500.000        3640.80     
  1837.09        500.000        3641.17     
  1834.59        500.000        3641.54     
  1832.08        500.000        3641.92     
  1829.57        500.000        3642.29     
  1827.07        500.000        3642.66     
  1824.56        500.000        3643.03     
  1822.06        500.000        3643.40     
  1819.55        500.000        3643.78     
  1817.04        500.000        3644.15     
  1814.54        500.000        3644.52     
  1812.03        500.000        3644.89     
  1809.52        500.000        3645.26     
  1807.02        500.000        3645.63     
  1804.51        500.000        3646.00     
  1802.01        500.000        3646.37     
  1799.50        500.000        3646.75     
  1796.99        500.000        3647.12     
  1794.49        500.000        3647.49     
  1791.98        500.000        3647.86     
  1789.47        500.000        3648.23     
  1786.97        500.000        3648.60     
  1784.46        500.000        3648.97     
  1781.95        500.000        3649.34     
  1779.45        500.000        3649.71     
  1776.94        500.000        3650.08     
  1774.44        500.000        3650.45     
  1771.93        500.000        3650.82     
  1769.42        500.000        3651.18     
  1766.92        500.000        3651.55     
  1764.41        500.000        3651.92     
  1761.90        500.000        3652.29     
  1759.40        500.000        3652.66     
  1756.89        500.000        3653.03     
  1754.39        500.000        3653.40     
  1751.88        500.000        3653.77     
  1749.37        500.000        3654.13     
  1746.87        500.000        3654.50     
  1744.36        500.000        3654.87     
  1741.85        500.000        3655.24     
  1739.35        500.000        3655.61     
  1736.84        500.000        3655.97     
  1734.34        500.000        3656.34     
  1731.83        500.000        3656.71     
  1729.32        500.000        3657.08     
  1726.82        500.000        3657.44     
  1724.31        500.000        3657.81     
  1721.80        500.000        3658.18     
  1719.30        500.000        3658.54     
  1716.79        500.000        3658.91     
  1714.29        500.000        3659.28     
  1711.78        500.000        3659.64     
  1709.27        500.000        3660.01     
  1706.77        500.000        3660.38     
  1704.26        500.000        3660.74     
  1701.75        500.000        3661.11     
  1699.25        500.000        3661.47     
  1696.74        500.000        3661.84     
  1694.24        500.000        3662.20     
  1691.73        500.000        3662.57     
  1689.22        500.000        3662.94     
  1686.72        500.000        3663.30     
  1684.21        500.000        3663.67     
  1681.70        500.000        3664.03     
  1679.20        500.000        3664.40     
  1676.69        500.000        3664.76     
  1674.19        500.000        3665.12     
  1671.68        500.000        3665.49     
  1669.17        500.000        3665.85     
  1666.67        500.000        3666.22     
  1664.16        500.000        3666.58     
  1661.65        500.000        3666.95     
  1659.15        500.000        3667.31     
  1656.64        500.000        3667.67     
  1654.14        500.000        3668.04     
  1651.63        500.000        3668.40     
  1649.12        500.000        3668.76     
  1646.62        500.000        3669.13     
  1644.11        500.000        3669.49     
  1641.60        500.000        3669.85     
  1639.10        500.000        3675.76     
  1636.59        500.000        3679.02     
  1634.09        500.000        3684.30     
  1631.58        500.000        3674.93     
  1629.07        500.000        3679.47     
  1626.57        500.000        3680.17     
  1624.06        500.000        3680.47     
  1621.55        500.000        3680.75     
  1619.05        500.000        3633.53     
  1616.54        500.000        3441.03     
  1614.04        500.000        3403.72     
  1611.53        500.000        3411.52     
  1609.02        500.000        3411.03     
  1606.52        500.000        3409.20     
  1604.01        500.000        3413.25     
  1601.50        500.000        3415.51     
  1599.00        500.000        3417.42     
  1596.49        500.000        3419.49     
  1593.98        500.000        3421.22     
  1591.48        500.000        3423.24     
  1588.97        500.000        3428.23     
  1586.47        500.000        3426.27     
  1583.96        500.000        3428.03     
  1581.45        500.000        3429.94     
  1578.95        500.000        3432.20     
  1576.44        500.000        3434.64     
  1573.93        500.000        3435.89     
  1571.43        500.000        3434.27     
  1568.92        500.000        3442.35     
  1566.42        500.000        3441.11     
  1563.91        500.000        3443.03     
  1561.40        500.000        3444.97     
  1558.90        500.000        3447.76     
  1556.39        500.000        3447.72     
  1553.88        500.000        3450.16     
  1551.38        500.000        3451.72     
  1548.87        500.000        3454.01     
  1546.37        500.000        3455.97     
  1543.86        500.000        3457.48     
  1541.35        500.000        3459.14     
  1538.85        500.000        3461.42     
  1536.34        500.000        3401.30     
  1533.83        500.000        3295.31     
  1531.33        500.000        3294.50     
  1528.82        500.000        3296.85     
  1526.32        500.000        3298.62     
  1523.81        500.000        3300.92     
  1521.30        500.000        3298.50     
  1518.80        500.000        3299.60     
  1516.29        500.000        3300.64     
  1513.78        500.000        3301.63     
  1511.28        500.000        3308.29     
  1508.77        500.000        3304.28     
  1506.27        500.000        3305.57     
  1503.76        500.000        3306.55     
  1501.25        500.000        3300.60     
  1498.75        500.000        3294.40     
  1496.24        500.000        3295.69     
  1493.73        500.000        3298.01     
  1491.23        500.000        3299.36     
  1488.72        500.000        3300.17     
  1486.22        500.000        3302.58     
  1483.71        500.000        3308.16     
  1481.20        500.000        3305.56     
  1478.70        500.000        3307.16     
  1476.19        500.000        3308.87     
  1473.68        500.000        3310.33     
  1471.18        500.000        3311.49     
  1468.67        500.000        3319.53     
  1466.17        500.000        3293.10     
  1463.66        500.000        3295.42     
  1461.15        500.000        3297.40     
  1458.65        500.000        3300.02     
  1456.14        500.000        3302.01     
  1453.63        500.000        3304.48     
  1451.13        500.000        3306.65     
  1448.62        500.000        3308.84     
  1446.12        500.000        3310.88     
  1443.61        500.000        3314.68     
  1441.10        500.000        3315.67     
  1438.60        500.000        3318.07     
  1436.09        500.000        3320.23     
  1433.58        500.000        3322.63     
  1431.08        500.000        3325.12     
  1428.57        500.000        3327.54     
  1426.07        500.000        3329.91     
  1423.56        500.000        3332.38     
  1421.05        500.000        3334.62     
  1418.55        500.000        3337.09     
  1416.04        500.000        3339.81     
  1413.53        500.000        3342.07     
  1411.03        500.000        3340.96     
  1408.52        500.000        3151.55     
  1406.02        500.000        3152.80     
  1403.51        500.000        3155.82     
  1401.00        500.000        3159.01     
  1398.50        500.000        3162.21     
  1395.99        500.000        3165.49     
  1393.48        500.000        3168.70     
  1390.98        500.000        3171.95     
  1388.47        500.000        3174.88     
  1385.96        500.000        3178.08     
  1383.46        500.000        3181.60     
  1380.95        500.000        3184.60     
  1378.45        500.000        3187.85     
  1375.94        500.000        3191.17     
  1373.43        500.000        3194.52     
  1370.93        500.000        3197.58     
  1368.42        500.000        3201.03     
  1365.91        500.000        3204.39     
  1363.41        500.000        3207.58     
  1360.90        500.000        3210.93     
  1358.40        500.000        3214.48     
  1355.89        500.000        3217.82     
  1353.38        500.000        3221.06     
  1350.88        500.000        3224.38     
  1348.37        500.000        3227.79     
  1345.86        500.000        3231.16     
  1343.36        500.000        3234.66     
  1340.85        500.000        3237.88     
  1338.35        500.000        3241.17     
  1335.84        500.000        3244.76     
  1333.33        500.000        3274.71     
  1330.83        500.000        3283.13     
  1328.32        500.000        3290.01     
  1325.81        500.000        3291.52     
  1323.31        500.000        3296.12     
  1320.80        500.000        3297.29     
  1318.30        500.000        3300.35     
  1315.79        500.000        3301.87     
  1313.28        500.000        3303.53     
  1310.78        500.000        3324.05     
  1308.27        500.000        3349.03     
  1305.76        500.000        3347.78     
  1303.26        500.000        3350.12     
  1300.75        500.000        3351.82     
  1298.25        500.000        3353.72     
  1295.74        500.000        3355.59     
  1293.23        500.000        3356.86     
  1290.73        500.000        3358.30     
  1288.22        500.000        3359.86     
  1285.71        500.000        3360.64     
  1283.21        500.000        3362.08     
  1280.70        500.000        3362.43     
  1278.20        500.000        3362.07     
  1275.69        500.000        3368.88     
  1273.18        500.000        3365.24     
  1270.68        500.000        3366.14     
  1268.17        500.000        3080.95     
  1265.66        500.000        2853.98     
  1263.16        500.000        2856.89     
  1260.65        500.000        2859.48     
  1258.15        500.000        2861.71     
  1255.64        500.000        2863.29     
  1253.13        500.000        2865.32     
  1250.63        500.000        2866.70     
  1248.12        500.000        2867.99     
  1245.61        500.000        2869.09     
  1243.11        500.000        2870.31     
  1240.60        500.000        2870.52     
  1238.10        500.000        2870.23     
  1235.59        500.000        2872.36     
  1233.08        500.000        2873.00     
  1230.58        500.000        2873.05     
  1228.07        500.000        2873.38     
  1225.56        500.000        2872.96     
  1223.06        500.000        2872.59     
  1220.55        500.000        2871.64     
  1218.05        500.000        2870.62     
  1215.54        500.000        2741.14     
  1213.03        500.000        2684.85     
  1210.53        500.000        2684.31     
  1208.02        500.000        2678.07     
  1205.51        500.000        2687.56     
  1203.01        500.000        2674.25     
  1200.50        500.000        2673.46     
  1197.99        500.000        2679.77     
  1195.49        500.000        2660.00     
  1192.98        500.000        2648.75     
  1190.48        500.000        2631.16     
  1187.97        500.000        2628.55     
  1185.46        500.000        2631.38     
  1182.96        500.000        2631.45     
  1180.45        500.000        2631.56     
  1177.94        500.000        2631.67     
  1175.44        500.000        2631.75     
  1172.93        500.000        2631.90     
  1170.43        500.000        2631.95     
  1167.92        500.000        2632.06     
  1165.41        500.000        2632.16     
  1162.91        500.000        2632.46     
  1160.40        500.000        2632.46     
  1157.89        500.000        2632.56     
  1155.39        500.000        2632.67     
  1152.88        500.000        2632.78     
  1150.38        500.000        2632.95     
  1147.87        500.000        2633.00     
  1145.36        500.000        2633.11     
  1142.86        500.000        2633.22     
  1140.35        500.000        2633.33     
  1137.84        500.000        2633.44     
  1135.34        500.000        2633.55     
  1132.83        500.000        2630.97     
  1130.33        500.000        2631.08     
  1127.82        500.000        2633.88     
  1125.31        500.000        2631.29     
  1122.81        500.000        2631.40     
  1120.30        500.000        2634.21     
  1117.79        500.000        2631.62     
  1115.29        500.000        2634.43     
  1112.78        500.000        2634.54     
  1110.28        500.000        2631.95     
  1107.77        500.000        2634.79     
  1105.26        500.000        2634.91     
  1102.76        500.000        2634.98     
  1100.25        500.000        2635.09     
  1097.74        500.000        2635.21     
  1095.24        500.000        2635.32     
  1092.73        500.000        2635.43     
  1090.23        500.000        2635.54     
  1087.72        500.000        2635.14     
  1085.21        500.000        2633.31     
  1082.71        500.000        2635.88     
  1080.20        500.000        2633.25     
  1077.69        500.000        2633.36     
  1075.19        500.000        2633.46     
  1072.68        500.000        2633.57     
  1070.18        500.000        2633.68     
  1067.67        500.000        2633.79     
  1065.16        500.000        2633.89     
  1062.66        500.000        2634.00     
  1060.15        500.000        2635.91     
  1057.64        500.000        2634.22     
  1055.14        500.000        2634.33     
  1052.63        500.000        2634.43     
  1050.13        500.000        2634.54     
  1047.62        500.000        2634.65     
  1045.11        500.000        2634.75     
  1042.61        500.000        2634.86     
  1040.10        500.000        2634.97     
  1037.59        500.000        2635.13     
  1035.09        500.000        2635.18     
  1032.58        500.000        2635.29     
  1030.08        500.000        2635.40     
  1027.57        500.000        2635.50     
  1025.06        500.000        2635.61     
  1022.56        500.000        2635.72     
  1020.05        500.000        2635.82     
  1017.54        500.000        2635.93     
  1015.04        500.000        2636.04     
  1012.53        500.000        2636.14     
  1010.03        500.000        2636.25     
  1007.52        500.000        2636.36     
  1005.01        500.000        2636.46     
  1002.51        500.000        2636.57     
  1000.00        500.000        2636.68     
