|6.6.6
Archiving\03_Data\fracLP/QFM_m2.75/GRV/GRV_6.tab                          
           1
T(K)    
  0.000000000000000E+000
  0.000000000000000E+000
           0
           3
T(K)           P(bar)         rho,kg/m3     
  2000.00        500.000        3552.33     
  1997.49        500.000        3552.70     
  1994.99        500.000        3553.07     
  1992.48        500.000        3553.44     
  1989.97        500.000        3553.81     
  1987.47        500.000        3554.18     
  1984.96        500.000        3554.55     
  1982.46        500.000        3554.92     
  1979.95        500.000        3555.29     
  1977.44        500.000        3555.66     
  1974.94        500.000        3556.03     
  1972.43        500.000        3556.40     
  1969.92        500.000        3556.77     
  1967.42        500.000        3557.14     
  1964.91        500.000        3557.50     
  1962.41        500.000        3557.87     
  1959.90        500.000        3558.24     
  1957.39        500.000        3558.61     
  1954.89        500.000        3558.98     
  1952.38        500.000        3559.35     
  1949.87        500.000        3559.72     
  1947.37        500.000        3560.08     
  1944.86        500.000        3560.45     
  1942.36        500.000        3560.82     
  1939.85        500.000        3561.19     
  1937.34        500.000        3561.56     
  1934.84        500.000        3561.92     
  1932.33        500.000        3562.29     
  1929.82        500.000        3562.66     
  1927.32        500.000        3563.03     
  1924.81        500.000        3563.39     
  1922.31        500.000        3563.76     
  1919.80        500.000        3564.13     
  1917.29        500.000        3564.49     
  1914.79        500.000        3564.86     
  1912.28        500.000        3565.23     
  1909.77        500.000        3565.59     
  1907.27        500.000        3565.96     
  1904.76        500.000        3566.32     
  1902.26        500.000        3566.69     
  1899.75        500.000        3567.06     
  1897.24        500.000        3567.42     
  1894.74        500.000        3567.79     
  1892.23        500.000        3568.15     
  1889.72        500.000        3568.52     
  1887.22        500.000        3568.88     
  1884.71        500.000        3569.25     
  1882.21        500.000        3569.61     
  1879.70        500.000        3569.98     
  1877.19        500.000        3570.34     
  1874.69        500.000        3570.71     
  1872.18        500.000        3571.07     
  1869.67        500.000        3571.44     
  1867.17        500.000        3571.80     
  1864.66        500.000        3572.16     
  1862.16        500.000        3572.53     
  1859.65        500.000        3572.89     
  1857.14        500.000        3573.25     
  1854.64        500.000        3573.62     
  1852.13        500.000        3573.98     
  1849.62        500.000        3574.35     
  1847.12        500.000        3574.71     
  1844.61        500.000        3575.07     
  1842.11        500.000        3575.43     
  1839.60        500.000        3575.80     
  1837.09        500.000        3576.16     
  1834.59        500.000        3576.52     
  1832.08        500.000        3576.88     
  1829.57        500.000        3577.25     
  1827.07        500.000        3577.61     
  1824.56        500.000        3577.97     
  1822.06        500.000        3578.33     
  1819.55        500.000        3578.70     
  1817.04        500.000        3579.06     
  1814.54        500.000        3579.42     
  1812.03        500.000        3579.78     
  1809.52        500.000        3580.14     
  1807.02        500.000        3580.50     
  1804.51        500.000        3583.79     
  1802.01        500.000        3588.95     
  1799.50        500.000        3595.46     
  1796.99        500.000        3595.73     
  1794.49        500.000        3596.01     
  1791.98        500.000        3596.25     
  1789.47        500.000        3596.52     
  1786.97        500.000        3596.79     
  1784.46        500.000        3597.10     
  1781.95        500.000        3597.27     
  1779.45        500.000        3597.57     
  1776.94        500.000        3597.90     
  1774.44        500.000        3598.06     
  1771.93        500.000        3606.75     
  1769.42        500.000        3590.12     
  1766.92        500.000        3598.91     
  1764.41        500.000        3599.17     
  1761.90        500.000        3599.44     
  1759.40        500.000        3491.12     
  1756.89        500.000        3277.09     
  1754.39        500.000        3264.04     
  1751.88        500.000        3308.83     
  1749.37        500.000        3282.60     
  1746.87        500.000        3284.55     
  1744.36        500.000        3285.66     
  1741.85        500.000        3287.83     
  1739.35        500.000        3289.38     
  1736.84        500.000        3291.17     
  1734.34        500.000        3293.05     
  1731.83        500.000        3295.13     
  1729.32        500.000        3296.29     
  1726.82        500.000        3297.90     
  1724.31        500.000        3300.31     
  1721.80        500.000        3301.15     
  1719.30        500.000        3302.74     
  1716.79        500.000        3305.49     
  1714.29        500.000        3306.23     
  1711.78        500.000        3307.55     
  1709.27        500.000        3311.27     
  1706.77        500.000        3306.18     
  1704.26        500.000        3312.71     
  1701.75        500.000        3314.82     
  1699.25        500.000        3316.73     
  1696.74        500.000        3318.07     
  1694.24        500.000        3319.52     
  1691.73        500.000        3320.76     
  1689.22        500.000        3322.30     
  1686.72        500.000        3324.72     
  1684.21        500.000        3325.44     
  1681.70        500.000        3328.27     
  1679.20        500.000        3328.30     
  1676.69        500.000        3330.34     
  1674.19        500.000        3331.51     
  1671.68        500.000        3333.16     
  1669.17        500.000        3335.13     
  1666.67        500.000        3336.28     
  1664.16        500.000        3339.10     
  1661.65        500.000        3339.39     
  1659.15        500.000        3340.73     
  1656.64        500.000        3341.85     
  1654.14        500.000        3343.31     
  1651.63        500.000        3339.03     
  1649.12        500.000        3352.23     
  1646.62        500.000        3351.40     
  1644.11        500.000        3349.16     
  1641.60        500.000        3350.52     
  1639.10        500.000        3352.25     
  1636.59        500.000        3353.27     
  1634.09        500.000        3354.33     
  1631.58        500.000        3355.53     
  1629.07        500.000        3357.70     
  1626.57        500.000        3358.78     
  1624.06        500.000        3240.03     
  1621.55        500.000        3233.30     
  1619.05        500.000        3234.42     
  1616.54        500.000        3235.36     
  1614.04        500.000        3236.66     
  1611.53        500.000        3237.58     
  1609.02        500.000        3238.60     
  1606.52        500.000        3240.91     
  1604.01        500.000        3240.92     
  1601.50        500.000        3241.99     
  1599.00        500.000        3242.97     
  1596.49        500.000        3244.31     
  1593.98        500.000        3245.55     
  1591.48        500.000        3246.53     
  1588.97        500.000        3247.69     
  1586.47        500.000        3248.57     
  1583.96        500.000        3249.75     
  1581.45        500.000        3250.50     
  1578.95        500.000        3251.63     
  1576.44        500.000        3252.87     
  1573.93        500.000        3254.64     
  1571.43        500.000        3256.37     
  1568.92        500.000        3256.70     
  1566.42        500.000        3259.83     
  1563.91        500.000        3260.69     
  1561.40        500.000        3259.60     
  1558.90        500.000        3261.76     
  1556.39        500.000        3263.19     
  1553.88        500.000        3263.98     
  1551.38        500.000        3265.24     
  1548.87        500.000        3266.55     
  1546.37        500.000        3267.75     
  1543.86        500.000        3268.76     
  1541.35        500.000        3270.05     
  1538.85        500.000        3271.51     
  1536.34        500.000        3272.55     
  1533.83        500.000        3258.73     
  1531.33        500.000        3260.74     
  1528.82        500.000        3271.15     
  1526.32        500.000        3272.10     
  1523.81        500.000        3272.57     
  1521.30        500.000        3268.84     
  1518.80        500.000        3260.22     
  1516.29        500.000        3262.51     
  1513.78        500.000        3264.54     
  1511.28        500.000        3266.91     
  1508.77        500.000        3269.30     
  1506.27        500.000        3271.67     
  1503.76        500.000        3274.38     
  1501.25        500.000        3276.53     
  1498.75        500.000        3278.74     
  1496.24        500.000        3280.82     
  1493.73        500.000        3283.27     
  1491.23        500.000        3285.66     
  1488.72        500.000        3288.02     
  1486.22        500.000        3290.21     
  1483.71        500.000        3292.62     
  1481.20        500.000        3295.00     
  1478.70        500.000        3297.31     
  1476.19        500.000        3299.60     
  1473.68        500.000        3301.94     
  1471.18        500.000        3304.56     
  1468.67        500.000        3306.74     
  1466.17        500.000        3309.06     
  1463.66        500.000        3311.59     
  1461.15        500.000        3313.79     
  1458.65        500.000        3316.33     
  1456.14        500.000        3319.25     
  1453.63        500.000        3321.29     
  1451.13        500.000        3323.40     
  1448.62        500.000        3325.95     
  1446.12        500.000        3328.41     
  1443.61        500.000        3331.20     
  1441.10        500.000        3333.33     
  1438.60        500.000        3336.19     
  1436.09        500.000        3338.52     
  1433.58        500.000        3341.14     
  1431.08        500.000        3343.54     
  1428.57        500.000        3346.30     
  1426.07        500.000        3348.89     
  1423.56        500.000        3351.22     
  1421.05        500.000        3354.00     
  1418.55        500.000        3356.53     
  1416.04        500.000        3359.38     
  1413.53        500.000        3362.19     
  1411.03        500.000        3364.57     
  1408.52        500.000        3367.70     
  1406.02        500.000        3369.99     
  1403.51        500.000        3372.54     
  1401.00        500.000        3375.56     
  1398.50        500.000        3378.32     
  1395.99        500.000        3380.95     
  1393.48        500.000        3225.65     
  1390.98        500.000        3176.58     
  1388.47        500.000        3179.81     
  1385.96        500.000        3183.33     
  1383.46        500.000        3186.74     
  1380.95        500.000        3189.93     
  1378.45        500.000        3193.31     
  1375.94        500.000        3197.03     
  1373.43        500.000        3200.81     
  1370.93        500.000        3204.04     
  1368.42        500.000        3207.54     
  1365.91        500.000        3211.11     
  1363.41        500.000        3214.48     
  1360.90        500.000        3218.54     
  1358.40        500.000        3222.33     
  1355.89        500.000        3219.17     
  1353.38        500.000        3223.14     
  1350.88        500.000        3229.16     
  1348.37        500.000        3234.80     
  1345.86        500.000        3240.54     
  1343.36        500.000        3259.83     
  1340.85        500.000        3267.97     
  1338.35        500.000        3344.56     
  1335.84        500.000        3356.02     
  1333.33        500.000        3363.31     
  1330.83        500.000        3368.98     
  1328.32        500.000        3373.76     
  1325.81        500.000        3377.98     
  1323.31        500.000        3366.95     
  1320.80        500.000        3364.75     
  1318.30        500.000        3414.58     
  1315.79        500.000        3366.80     
  1313.28        500.000        3367.43     
  1310.78        500.000        3367.38     
  1308.27        500.000        3361.43     
  1305.76        500.000        3363.24     
  1303.26        500.000        3360.85     
  1300.75        500.000        3358.45     
  1298.25        500.000        4623.39     
  1295.74        500.000        3330.89     
  1293.23        500.000        3325.94     
  1290.73        500.000        3326.90     
  1288.22        500.000        3326.78     
  1285.71        500.000        3326.35     
  1283.21        500.000        3325.53     
  1280.70        500.000        3324.32     
  1278.20        500.000        3324.62     
  1275.69        500.000        3312.97     
  1273.18        500.000        3316.01     
  1270.68        500.000        3322.90     
  1268.17        500.000        3326.52     
  1265.66        500.000        3366.67     
  1263.16        500.000        3376.19     
  1260.65        500.000        3374.82     
  1258.15        500.000        3348.85     
  1255.64        500.000        3351.17     
  1253.13        500.000        3352.95     
  1250.63        500.000        3354.89     
  1248.12        500.000        3355.99     
  1245.61        500.000        3357.64     
  1243.11        500.000        2884.64     
  1240.60        500.000        2865.19     
  1238.10        500.000        2867.74     
  1235.59        500.000        2868.27     
  1233.08        500.000        2868.94     
  1230.58        500.000        2869.95     
  1228.07        500.000        2870.38     
  1225.56        500.000        2870.66     
  1223.06        500.000        2871.09     
  1220.55        500.000        2871.07     
  1218.05        500.000        2695.35     
  1215.54        500.000        2691.80     
  1213.03        500.000        2691.60     
  1210.53        500.000        2691.45     
  1208.02        500.000        2682.74     
  1205.51        500.000        2690.43     
  1203.01        500.000        2672.82     
  1200.50        500.000        2708.88     
  1197.99        500.000        2668.66     
  1195.49        500.000        2679.40     
  1192.98        500.000        2663.34     
  1190.48        500.000        2646.82     
  1187.97        500.000        2631.58     
  1185.46        500.000        2628.36     
  1182.96        500.000        2628.46     
  1180.45        500.000        2628.56     
  1177.94        500.000        2631.63     
  1175.44        500.000        2628.77     
  1172.93        500.000        2628.88     
  1170.43        500.000        2628.98     
  1167.92        500.000        2629.07     
  1165.41        500.000        2629.36     
  1162.91        500.000        2629.28     
  1160.40        500.000        2629.39     
  1157.89        500.000        2634.87     
  1155.39        500.000        2629.58     
  1152.88        500.000        2632.13     
  1150.38        500.000        2629.78     
  1147.87        500.000        2629.88     
  1145.36        500.000        2635.46     
  1142.86        500.000        2630.23     
  1140.35        500.000        2630.41     
  1137.84        500.000        2635.79     
  1135.34        500.000        2630.39     
  1132.83        500.000        2630.49     
  1130.33        500.000        2630.60     
  1127.82        500.000        2630.69     
  1125.31        500.000        2630.79     
  1122.81        500.000        2630.90     
  1120.30        500.000        2633.00     
  1117.79        500.000        2631.09     
  1115.29        500.000        2631.26     
  1112.78        500.000        2636.77     
  1110.28        500.000        2634.32     
  1107.77        500.000        2631.48     
  1105.26        500.000        2633.47     
  1102.76        500.000        2631.70     
  1100.25        500.000        2631.76     
  1097.74        500.000        2631.90     
  1095.24        500.000        2631.98     
  1092.73        500.000        2632.82     
  1090.23        500.000        2632.18     
  1087.72        500.000        2632.26     
  1085.21        500.000        2632.36     
  1082.71        500.000        2632.46     
  1080.20        500.000        2632.56     
  1077.69        500.000        2632.75     
  1075.19        500.000        2634.99     
  1072.68        500.000        2632.88     
  1070.18        500.000        2635.11     
  1067.67        500.000        2633.09     
  1065.16        500.000        2633.19     
  1062.66        500.000        2634.99     
  1060.15        500.000        2634.94     
  1057.64        500.000        2633.50     
  1055.14        500.000        2635.32     
  1052.63        500.000        2633.71     
  1050.13        500.000        2635.27     
  1047.62        500.000        2635.36     
  1045.11        500.000        2635.50     
  1042.61        500.000        2634.10     
  1040.10        500.000        2635.69     
  1037.59        500.000        2634.29     
  1035.09        500.000        2634.40     
  1032.58        500.000        2634.50     
  1030.08        500.000        2634.59     
  1027.57        500.000        2634.69     
  1025.06        500.000        2636.17     
  1022.56        500.000        2634.87     
  1020.05        500.000        2635.15     
  1017.54        500.000        2636.67     
  1015.04        500.000        2636.51     
  1012.53        500.000        2635.26     
  1010.03        500.000        2637.48     
  1007.52        500.000        2635.46     
  1005.01        500.000        2636.94     
  1002.51        500.000        2635.69     
  1000.00        500.000        2637.06     
