|6.6.6
Archiving\03_Data\fracLP/QFM_m4.25/YM20/YM20_6.tab                      
           1
T(K)    
  0.000000000000000E+000
  0.000000000000000E+000
           0
           3
T(K)           P(bar)         rho,kg/m3     
  2000.00        500.000        5145.98     
  1997.49        500.000        5146.73     
  1994.99        500.000        5147.49     
  1992.48        500.000        5148.24     
  1989.97        500.000        5149.00     
  1987.47        500.000        5149.75     
  1984.96        500.000        5150.50     
  1982.46        500.000        5151.26     
  1979.95        500.000        5152.01     
  1977.44        500.000        5152.76     
  1974.94        500.000        5153.51     
  1972.43        500.000        5154.26     
  1969.92        500.000        5155.01     
  1967.42        500.000        5155.76     
  1964.91        500.000        5156.51     
  1962.41        500.000        5157.26     
  1959.90        500.000        5158.01     
  1957.39        500.000        5158.76     
  1954.89        500.000        5159.51     
  1952.38        500.000        5160.26     
  1949.87        500.000        5161.00     
  1947.37        500.000        5161.75     
  1944.86        500.000        5162.50     
  1942.36        500.000        5163.24     
  1939.85        500.000        5163.99     
  1937.34        500.000        5164.74     
  1934.84        500.000        5165.48     
  1932.33        500.000        5166.22     
  1929.82        500.000        5166.97     
  1927.32        500.000        5167.71     
  1924.81        500.000        5168.46     
  1922.31        500.000        5169.20     
  1919.80        500.000        5169.94     
  1917.29        500.000        5170.68     
  1914.79        500.000        5171.42     
  1912.28        500.000        5172.17     
  1909.77        500.000        5172.91     
  1907.27        500.000        5173.65     
  1904.76        500.000        5174.39     
  1902.26        500.000        5175.13     
  1899.75        500.000        5175.87     
  1897.24        500.000        5176.60     
  1894.74        500.000        5177.34     
  1892.23        500.000        5178.08     
  1889.72        500.000        3898.92     
  1887.22        500.000        3153.73     
  1884.71        500.000        3154.77     
  1882.21        500.000        3156.77     
  1879.70        500.000        3158.01     
  1877.19        500.000        3159.40     
  1874.69        500.000        3160.89     
  1872.18        500.000        3162.58     
  1869.67        500.000        3164.10     
  1867.17        500.000        3165.79     
  1864.66        500.000        3167.26     
  1862.16        500.000        3168.66     
  1859.65        500.000        3170.40     
  1857.14        500.000        3172.37     
  1854.64        500.000        3193.60     
  1852.13        500.000        3198.51     
  1849.62        500.000        3199.95     
  1847.12        500.000        3201.97     
  1844.61        500.000        3203.51     
  1842.11        500.000        3204.54     
  1839.60        500.000        3206.16     
  1837.09        500.000        3207.91     
  1834.59        500.000        3209.70     
  1832.08        500.000        3211.45     
  1829.57        500.000        3212.24     
  1827.07        500.000        3213.61     
  1824.56        500.000        3215.99     
  1822.06        500.000        3217.50     
  1819.55        500.000        3219.58     
  1817.04        500.000        3220.69     
  1814.54        500.000        3222.43     
  1812.03        500.000        3224.94     
  1809.52        500.000        3226.30     
  1807.02        500.000        3226.67     
  1804.51        500.000        3229.12     
  1802.01        500.000        3230.39     
  1799.50        500.000        3232.46     
  1796.99        500.000        3234.21     
  1794.49        500.000        3235.54     
  1791.98        500.000        3237.50     
  1789.47        500.000        3238.60     
  1786.97        500.000        3240.62     
  1784.46        500.000        3242.52     
  1781.95        500.000        3243.75     
  1779.45        500.000        3245.43     
  1776.94        500.000        3247.34     
  1774.44        500.000        3246.63     
  1771.93        500.000        2897.34     
  1769.42        500.000        3252.55     
  1766.92        500.000        3253.09     
  1764.41        500.000        3255.80     
  1761.90        500.000        3256.04     
  1759.40        500.000        3259.57     
  1756.89        500.000        3260.66     
  1754.39        500.000        3261.92     
  1751.88        500.000        3263.76     
  1749.37        500.000        3265.20     
  1746.87        500.000        3267.12     
  1744.36        500.000        3268.61     
  1741.85        500.000        3269.60     
  1739.35        500.000        3271.41     
  1736.84        500.000        3275.76     
  1734.34        500.000        3275.52     
  1731.83        500.000        3275.91     
  1729.32        500.000        3278.20     
  1726.82        500.000        3279.98     
  1724.31        500.000        3281.00     
  1721.80        500.000        3283.14     
  1719.30        500.000        3284.73     
  1716.79        500.000        3287.24     
  1714.29        500.000        3288.19     
  1711.78        500.000        3288.93     
  1709.27        500.000        3290.68     
  1706.77        500.000        3292.28     
  1704.26        500.000        3293.86     
  1701.75        500.000        3294.93     
  1699.25        500.000        3296.29     
  1696.74        500.000        3298.78     
  1694.24        500.000        3299.89     
  1691.73        500.000        3303.06     
  1689.22        500.000        3302.37     
  1686.72        500.000        3304.65     
  1684.21        500.000        3307.29     
  1681.70        500.000        3308.31     
  1679.20        500.000        3309.77     
  1676.69        500.000        3311.24     
  1674.19        500.000        3312.95     
  1671.68        500.000        3314.11     
  1669.17        500.000        3315.69     
  1666.67        500.000        3317.44     
  1664.16        500.000        3318.58     
  1661.65        500.000        3320.60     
  1659.15        500.000        3321.80     
  1656.64        500.000        3323.35     
  1654.14        500.000        3324.23     
  1651.63        500.000        3326.11     
  1649.12        500.000        3387.03     
  1646.62        500.000        3312.14     
  1644.11        500.000        3330.88     
  1641.60        500.000        3331.05     
  1639.10        500.000        3333.43     
  1636.59        500.000        3333.81     
  1634.09        500.000        3335.90     
  1631.58        500.000        3367.40     
  1629.07        500.000        3338.99     
  1626.57        500.000        3338.73     
  1624.06        500.000        3340.90     
  1621.55        500.000        3342.72     
  1619.05        500.000        3344.96     
  1616.54        500.000        3344.67     
  1614.04        500.000        3345.83     
  1611.53        500.000        3347.06     
  1609.02        500.000        3348.78     
  1606.52        500.000        3350.73     
  1604.01        500.000        3352.38     
  1601.50        500.000        3354.37     
  1599.00        500.000        4438.21     
  1596.49        500.000        3349.58     
  1593.98        500.000        3357.52     
  1591.48        500.000        3358.46     
  1588.97        500.000        3360.06     
  1586.47        500.000        3253.09     
  1583.96        500.000        3248.82     
  1581.45        500.000        3250.13     
  1578.95        500.000        3250.88     
  1576.44        500.000        3251.36     
  1573.93        500.000        3253.07     
  1571.43        500.000        3253.35     
  1568.92        500.000        3254.18     
  1566.42        500.000        3254.93     
  1563.91        500.000        3255.87     
  1561.40        500.000        3256.36     
  1558.90        500.000        3257.03     
  1556.39        500.000        3258.10     
  1553.88        500.000        3258.26     
  1551.38        500.000        3259.32     
  1548.87        500.000        3260.73     
  1546.37        500.000        3261.48     
  1543.86        500.000        3261.33     
  1541.35        500.000        3261.83     
  1538.85        500.000        3261.88     
  1536.34        500.000        3266.51     
  1533.83        500.000        3267.29     
  1531.33        500.000        3263.28     
  1528.82        500.000        3265.55     
  1526.32        500.000        3266.37     
  1523.81        500.000        3267.05     
  1521.30        500.000        3265.80     
  1518.80        500.000        3267.82     
  1516.29        500.000        3268.97     
  1513.78        500.000        3289.95     
  1511.28        500.000        3269.50     
  1508.77        500.000        3270.01     
  1506.27        500.000        3271.47     
  1503.76        500.000        3274.25     
  1501.25        500.000        3272.87     
  1498.75        500.000        3274.05     
  1496.24        500.000        3274.72     
  1493.73        500.000        3275.93     
  1491.23        500.000        3276.81     
  1488.72        500.000        3277.69     
  1486.22        500.000        3279.35     
  1483.71        500.000        3279.96     
  1481.20        500.000        3272.02     
  1478.70        500.000        3269.23     
  1476.19        500.000        3269.88     
  1473.68        500.000        3271.57     
  1471.18        500.000        3273.41     
  1468.67        500.000        3274.59     
  1466.17        500.000        3276.56     
  1463.66        500.000        3277.88     
  1461.15        500.000        3278.62     
  1458.65        500.000        3279.76     
  1456.14        500.000        3281.45     
  1453.63        500.000        3282.12     
  1451.13        500.000        3285.41     
  1448.62        500.000        3285.29     
  1446.12        500.000        3286.73     
  1443.61        500.000        3289.53     
  1441.10        500.000        3289.68     
  1438.60        500.000        3290.38     
  1436.09        500.000        3272.24     
  1433.58        500.000        3272.36     
  1431.08        500.000        3274.24     
  1428.57        500.000        3276.39     
  1426.07        500.000        3277.85     
  1423.56        500.000        3279.99     
  1421.05        500.000        3165.26     
  1418.55        500.000        3099.81     
  1416.04        500.000        3102.22     
  1413.53        500.000        3104.30     
  1411.03        500.000        3106.64     
  1408.52        500.000        3108.69     
  1406.02        500.000        3110.90     
  1403.51        500.000        3113.06     
  1401.00        500.000        3115.22     
  1398.50        500.000        3117.41     
  1395.99        500.000        3119.88     
  1393.48        500.000        3121.96     
  1390.98        500.000        3123.94     
  1388.47        500.000        3126.13     
  1385.96        500.000        3128.05     
  1383.46        500.000        3130.57     
  1380.95        500.000        3132.56     
  1378.45        500.000        3134.99     
  1375.94        500.000        3137.20     
  1373.43        500.000        3139.51     
  1370.93        500.000        3141.68     
  1368.42        500.000        3143.82     
  1365.91        500.000        3146.19     
  1363.41        500.000        3148.09     
  1360.90        500.000        3150.59     
  1358.40        500.000        3152.76     
  1355.89        500.000        3155.14     
  1353.38        500.000        3157.37     
  1350.88        500.000        3159.66     
  1348.37        500.000        3161.94     
  1345.86        500.000        3164.20     
  1343.36        500.000        3166.22     
  1340.85        500.000        3168.78     
  1338.35        500.000        3171.45     
  1335.84        500.000        3197.50     
  1333.33        500.000        3205.23     
  1330.83        500.000        3208.15     
  1328.32        500.000        3211.05     
  1325.81        500.000        3213.86     
  1323.31        500.000        3216.40     
  1320.80        500.000        3219.35     
  1318.30        500.000        3221.98     
  1315.79        500.000        3217.98     
  1313.28        500.000        3235.20     
  1310.78        500.000        3229.54     
  1308.27        500.000        3233.02     
  1305.76        500.000        3233.20     
  1303.26        500.000        3236.75     
  1300.75        500.000        3238.62     
  1298.25        500.000        3240.73     
  1295.74        500.000        3242.71     
  1293.23        500.000        3244.37     
  1290.73        500.000        3246.45     
  1288.22        500.000        3091.66     
  1285.71        500.000        2774.66     
  1283.21        500.000        2778.64     
  1280.70        500.000        2782.13     
  1278.20        500.000        2785.61     
  1275.69        500.000        2788.76     
  1273.18        500.000        2791.53     
  1270.68        500.000        2794.39     
  1268.17        500.000        2796.83     
  1265.66        500.000        2799.11     
  1263.16        500.000        2801.22     
  1260.65        500.000        2803.27     
  1258.15        500.000        2805.48     
  1255.64        500.000        2807.31     
  1253.13        500.000        2809.18     
  1250.63        500.000        2810.88     
  1248.12        500.000        2812.60     
  1245.61        500.000        2814.69     
  1243.11        500.000        2815.86     
  1240.60        500.000        2817.52     
  1238.10        500.000        2819.93     
  1235.59        500.000        2820.90     
  1233.08        500.000        2822.11     
  1230.58        500.000        2823.78     
  1228.07        500.000        2824.70     
  1225.56        500.000        2826.46     
  1223.06        500.000        2827.16     
  1220.55        500.000        2828.21     
  1218.05        500.000        2833.57     
  1215.54        500.000        2833.44     
  1213.03        500.000        2832.55     
  1210.53        500.000        2733.83     
  1208.02        500.000        2668.08     
  1205.51        500.000        2666.05     
  1203.01        500.000        2664.05     
  1200.50        500.000        2669.87     
  1197.99        500.000        2678.50     
  1195.49        500.000        2663.68     
  1192.98        500.000        2649.10     
  1190.48        500.000        2632.23     
  1187.97        500.000        2632.31     
  1185.46        500.000        2632.48     
  1182.96        500.000        2632.49     
  1180.45        500.000        2632.60     
  1177.94        500.000        2632.71     
  1175.44        500.000        2632.91     
  1172.93        500.000        2632.93     
  1170.43        500.000        2633.05     
  1167.92        500.000        2633.16     
  1165.41        500.000        2633.27     
  1162.91        500.000        2633.38     
  1160.40        500.000        2633.50     
  1157.89        500.000        2633.61     
  1155.39        500.000        2633.72     
  1152.88        500.000        2633.84     
  1150.38        500.000        2633.95     
  1147.87        500.000        2634.13     
  1145.36        500.000        2634.24     
  1142.86        500.000        2634.34     
  1140.35        500.000        2634.46     
  1137.84        500.000        2634.57     
  1135.34        500.000        2634.68     
  1132.83        500.000        2634.78     
  1130.33        500.000        2634.82     
  1127.82        500.000        2634.99     
  1125.31        500.000        2635.02     
  1122.81        500.000        2635.13     
  1120.30        500.000        2635.32     
  1117.79        500.000        2635.35     
  1115.29        500.000        2635.46     
  1112.78        500.000        2635.58     
  1110.28        500.000        2635.69     
  1107.77        500.000        2635.80     
  1105.26        500.000        2635.91     
  1102.76        500.000        2636.03     
  1100.25        500.000        2636.19     
  1097.74        500.000        2636.25     
  1095.24        500.000        2636.37     
  1092.73        500.000        2636.47     
  1090.23        500.000        2636.58     
  1087.72        500.000        2636.70     
  1085.21        500.000        2636.84     
  1082.71        500.000        2636.95     
  1080.20        500.000        2637.03     
  1077.69        500.000        2634.54     
  1075.19        500.000        2634.83     
  1072.68        500.000        2637.38     
  1070.18        500.000        2637.48     
  1067.67        500.000        2637.60     
  1065.16        500.000        2637.60     
  1062.66        500.000        2637.22     
  1060.15        500.000        2636.75     
  1057.64        500.000        2636.43     
  1055.14        500.000        2636.31     
  1052.63        500.000        2636.25     
  1050.13        500.000        2636.22     
  1047.62        500.000        2636.21     
  1045.11        500.000        2636.22     
  1042.61        500.000        2636.23     
  1040.10        500.000        2636.26     
  1037.59        500.000        2636.29     
  1035.09        500.000        2636.33     
  1032.58        500.000        2636.37     
  1030.08        500.000        2636.42     
  1027.57        500.000        2636.47     
  1025.06        500.000        2636.52     
  1022.56        500.000        2636.58     
  1020.05        500.000        2636.63     
  1017.54        500.000        2636.70     
  1015.04        500.000        2636.76     
  1012.53        500.000        2636.82     
  1010.03        500.000        2636.89     
  1007.52        500.000        2636.74     
  1005.01        500.000        2637.03     
  1002.51        500.000        2637.12     
  1000.00        500.000        2637.18     
