|6.6.6
Archiving\03_Data\eqfracLP/QFM_m3/GRV/GRV_6.tab                           
           1
T(K)    
  0.000000000000000E+000
  0.000000000000000E+000
           0
           3
T(K)           P(bar)         rho,kg/m3     
  1564.10        500.000        4561.79     
  1562.69        500.000        3241.88     
  1561.27        500.000        3242.64     
  1559.86        500.000        3242.74     
  1558.44        500.000        3242.90     
  1557.03        500.000        3244.17     
  1555.62        500.000        3244.54     
  1554.20        500.000        3245.33     
  1552.79        500.000        3245.21     
  1551.38        500.000        3246.50     
  1549.96        500.000        3247.57     
  1548.55        500.000        3247.16     
  1547.13        500.000        3247.98     
  1545.72        500.000        3248.98     
  1544.31        500.000        3249.42     
  1542.89        500.000        3249.51     
  1541.48        500.000        3250.35     
  1540.07        500.000        3251.29     
  1538.65        500.000        3251.55     
  1537.24        500.000        3239.93     
  1535.82        500.000        3236.76     
  1534.41        500.000        3238.87     
  1533.00        500.000        3240.03     
  1531.58        500.000        3249.06     
  1530.17        500.000        3248.90     
  1528.76        500.000        3238.87     
  1527.34        500.000        3239.69     
  1525.93        500.000        3240.86     
  1524.51        500.000        3241.90     
  1523.10        500.000        3243.02     
  1521.69        500.000        3244.23     
  1520.27        500.000        3244.60     
  1518.86        500.000        3245.17     
  1517.45        500.000        3246.31     
  1516.03        500.000        3247.42     
  1514.62        500.000        3248.47     
  1513.20        500.000        3249.57     
  1511.79        500.000        3250.67     
  1510.38        500.000        3252.29     
  1508.96        500.000        3253.27     
  1507.55        500.000        3254.31     
  1506.13        500.000        3255.41     
  1504.72        500.000        3256.58     
  1503.31        500.000        3257.94     
  1501.89        500.000        3259.26     
  1500.48        500.000        3260.33     
  1499.07        500.000        3261.40     
  1497.65        500.000        3262.61     
  1496.24        500.000        3263.81     
  1494.82        500.000        3265.03     
  1493.41        500.000        3266.18     
  1492.00        500.000        3267.35     
  1490.58        500.000        3268.64     
  1489.17        500.000        3269.76     
  1487.76        500.000        3270.12     
  1486.34        500.000        3271.82     
  1484.93        500.000        3273.23     
  1483.51        500.000        3274.28     
  1482.10        500.000        3275.40     
  1480.69        500.000        3276.51     
  1479.27        500.000        3278.69     
  1477.86        500.000        3281.27     
  1476.45        500.000        3283.14     
  1475.03        500.000        3284.23     
  1473.62        500.000        3285.75     
  1472.20        500.000        3286.87     
  1470.79        500.000        3287.81     
  1469.38        500.000        3289.54     
  1467.96        500.000        3290.40     
  1466.55        500.000        3291.69     
  1465.14        500.000        3293.21     
  1463.72        500.000        3294.41     
  1462.31        500.000        3295.60     
  1460.89        500.000        3296.69     
  1459.48        500.000        3298.03     
  1458.07        500.000        3298.98     
  1456.65        500.000        3300.49     
  1455.24        500.000        3301.97     
  1453.82        500.000        3302.82     
  1452.41        500.000        3304.20     
  1451.00        500.000        3306.68     
  1449.58        500.000        3307.16     
  1448.17        500.000        3308.02     
  1446.76        500.000        3309.28     
  1445.34        500.000        3310.69     
  1443.93        500.000        3311.99     
  1442.51        500.000        3312.96     
  1441.10        500.000        3314.48     
  1439.69        500.000        3315.60     
  1438.27        500.000        3317.29     
  1436.86        500.000        3318.45     
  1435.45        500.000        3319.73     
  1434.03        500.000        3320.97     
  1432.62        500.000        3322.19     
  1431.20        500.000        3323.65     
  1429.79        500.000        3325.00     
  1428.38        500.000        3326.33     
  1426.96        500.000        3327.72     
  1425.55        500.000        3328.99     
  1424.14        500.000        3330.28     
  1422.72        500.000        3331.43     
  1421.31        500.000        3333.01     
  1419.89        500.000        3334.41     
  1418.48        500.000        3335.59     
  1417.07        500.000        3337.20     
  1415.65        500.000        3338.47     
  1414.24        500.000        3339.69     
  1412.83        500.000        3341.43     
  1411.41        500.000        3342.52     
  1410.00        500.000        3343.89     
  1408.58        500.000        3345.67     
  1407.17        500.000        3346.86     
  1405.76        500.000        3348.27     
  1404.34        500.000        3349.81     
  1402.93        500.000        3177.65     
  1401.51        500.000        3153.68     
  1400.10        500.000        3155.09     
  1398.69        500.000        3157.22     
  1397.27        500.000        3158.86     
  1395.86        500.000        3160.69     
  1394.45        500.000        3162.36     
  1393.03        500.000        3164.05     
  1391.62        500.000        3165.95     
  1390.20        500.000        3167.33     
  1388.79        500.000        3169.42     
  1387.38        500.000        3171.09     
  1385.96        500.000        3173.10     
  1384.55        500.000        3174.69     
  1383.14        500.000        3176.30     
  1381.72        500.000        3177.94     
  1380.31        500.000        3180.01     
  1378.89        500.000        3181.68     
  1377.48        500.000        3183.55     
  1376.07        500.000        3185.59     
  1374.65        500.000        3187.06     
  1373.24        500.000        3188.98     
  1371.83        500.000        3190.60     
  1370.41        500.000        3192.42     
  1369.00        500.000        3193.94     
  1367.58        500.000        3196.05     
  1366.17        500.000        3198.90     
  1364.76        500.000        3199.72     
  1363.34        500.000        3201.79     
  1361.93        500.000        3203.77     
  1360.52        500.000        3205.23     
  1359.10        500.000        3206.96     
  1357.69        500.000        3208.78     
  1356.27        500.000        3210.83     
  1354.86        500.000        3212.58     
  1353.45        500.000        3214.60     
  1352.03        500.000        3216.23     
  1350.62        500.000        3218.31     
  1349.20        500.000        3219.83     
  1347.79        500.000        3222.38     
  1346.38        500.000        3223.49     
  1344.96        500.000        3225.80     
  1343.55        500.000        3227.74     
  1342.14        500.000        3229.50     
  1340.72        500.000        3231.32     
  1339.31        500.000        3233.24     
  1337.89        500.000        3234.32     
  1336.48        500.000        3237.29     
  1335.07        500.000        3238.35     
  1333.65        500.000        3240.82     
  1332.24        500.000        3242.57     
  1330.83        500.000        3244.55     
  1329.41        500.000        3246.37     
  1328.00        500.000        3248.27     
  1326.58        500.000        3250.01     
  1325.17        500.000        3251.73     
  1323.76        500.000        3253.89     
  1322.34        500.000        3255.58     
  1320.93        500.000        3276.38     
  1319.52        500.000        3299.56     
  1318.10        500.000        3301.52     
  1316.69        500.000        3303.13     
  1315.27        500.000        3304.56     
  1313.86        500.000        3305.60     
  1312.45        500.000        3307.90     
  1311.03        500.000        3308.70     
  1309.62        500.000        3309.98     
  1308.21        500.000        3310.81     
  1306.79        500.000        3311.79     
  1305.38        500.000        3313.88     
  1303.96        500.000        3315.93     
  1302.55        500.000        3308.42     
  1301.14        500.000        3303.32     
  1299.72        500.000        3422.59     
  1298.31        500.000        3301.08     
  1296.89        500.000        3307.45     
  1295.48        500.000        3329.86     
  1294.07        500.000        3357.61     
  1292.65        500.000        3358.46     
  1291.24        500.000        3359.76     
  1289.83        500.000        3360.92     
  1288.41        500.000        3361.89     
  1287.00        500.000        3363.49     
  1285.58        500.000        3363.79     
  1284.17        500.000        3364.32     
  1282.76        500.000        3365.96     
  1281.34        500.000        3366.33     
  1279.93        500.000        3367.70     
  1278.52        500.000        3368.64     
  1277.10        500.000        3368.60     
  1275.69        500.000        3369.18     
  1274.27        500.000        3369.61     
  1272.86        500.000        3370.29     
  1271.45        500.000        3370.48     
  1270.03        500.000        3370.78     
  1268.62        500.000        3371.27     
  1267.21        500.000        2899.11     
  1265.79        500.000        2857.38     
  1264.38        500.000        2859.27     
  1262.96        500.000        2860.92     
  1261.55        500.000        2862.49     
  1260.14        500.000        2863.82     
  1258.72        500.000        2865.41     
  1257.31        500.000        2866.96     
  1255.89        500.000        2864.84     
  1254.48        500.000        2870.15     
  1253.07        500.000        2869.79     
  1251.65        500.000        2870.88     
  1250.24        500.000        2871.67     
  1248.83        500.000        2872.44     
  1247.41        500.000        2873.02     
  1246.00        500.000        2873.73     
  1244.58        500.000        2874.25     
  1243.17        500.000        2874.77     
  1241.76        500.000        2874.98     
  1240.34        500.000        2876.36     
  1238.93        500.000        2876.03     
  1237.52        500.000        2876.63     
  1236.10        500.000        2876.47     
  1234.69        500.000        2876.89     
  1233.27        500.000        2877.25     
  1231.86        500.000        2876.99     
  1230.45        500.000        2877.39     
  1229.03        500.000        2877.98     
  1227.62        500.000        2878.50     
  1226.21        500.000        2878.53     
  1224.79        500.000        2877.55     
  1223.38        500.000        2877.55     
  1221.96        500.000        2878.26     
  1220.55        500.000        2877.64     
  1219.14        500.000        2877.50     
  1217.72        500.000        2876.38     
  1216.31        500.000        2689.93     
  1214.90        500.000        2689.76     
  1213.48        500.000        2693.57     
  1212.07        500.000        2690.80     
  1210.65        500.000        2683.09     
  1209.24        500.000        2678.65     
  1207.83        500.000        2695.64     
  1206.41        500.000        2704.08     
  1205.00        500.000        2684.82     
  1203.58        500.000        2652.63     
  1202.17        500.000        2628.12     
  1200.76        500.000        3434.71     
  1199.34        500.000        2983.24     
  1197.93        500.000        3385.34     
  1196.52        500.000        2511.23     
  1195.10        500.000        2714.87     
  1193.69        500.000        3120.48     
  1192.27        500.000        2664.88     
  1190.86        500.000        2628.96     
  1189.45        500.000        2631.64     
  1188.03        500.000        2631.62     
  1186.62        500.000        2629.67     
  1185.21        500.000        2629.73     
  1183.79        500.000        2629.79     
  1182.38        500.000        2629.85     
  1180.96        500.000        2629.91     
  1179.55        500.000        2629.97     
  1178.14        500.000        2630.04     
  1176.72        500.000        2630.10     
  1175.31        500.000        2630.16     
  1173.90        500.000        2630.22     
  1172.48        500.000        2630.28     
  1171.07        500.000        2630.34     
  1169.65        500.000        2630.41     
  1168.24        500.000        2630.47     
  1166.83        500.000        2630.53     
  1165.41        500.000        2630.59     
  1164.00        500.000        2630.65     
  1162.59        500.000        2630.71     
  1161.17        500.000        2630.77     
  1159.76        500.000        2630.84     
  1158.34        500.000        2630.90     
  1156.93        500.000        2630.96     
  1155.52        500.000        2631.02     
  1154.10        500.000        2631.08     
  1152.69        500.000        2631.14     
  1151.27        500.000        2631.20     
  1149.86        500.000        2631.27     
  1148.45        500.000        2631.33     
  1147.03        500.000        2631.39     
  1145.62        500.000        2631.45     
  1144.21        500.000        2631.51     
  1142.79        500.000        2631.57     
  1141.38        500.000        2633.67     
  1139.96        500.000        2633.73     
  1138.55        500.000        2633.79     
  1137.14        500.000        2633.85     
  1135.72        500.000        2633.91     
  1134.31        500.000        2631.94     
  1132.90        500.000        2634.04     
  1131.48        500.000        2632.06     
  1130.07        500.000        2632.12     
  1128.65        500.000        2632.18     
  1127.24        500.000        2632.25     
  1125.83        500.000        2632.31     
  1124.41        500.000        2632.37     
  1123.00        500.000        2632.27     
  1121.59        500.000        2632.33     
  1120.17        500.000        2632.25     
  1118.76        500.000        2632.31     
  1117.34        500.000        2632.23     
  1115.93        500.000        2632.29     
  1114.52        500.000        2632.22     
  1113.10        500.000        2634.86     
  1111.69        500.000        2634.93     
  1110.28        500.000        2634.99     
  1108.86        500.000        2635.05     
  1107.45        500.000        2635.07     
  1106.03        500.000        2635.13     
  1104.62        500.000        2635.19     
  1103.21        500.000        2635.25     
  1101.79        500.000        2635.30     
  1100.38        500.000        2635.30     
  1098.96        500.000        2635.23     
  1097.55        500.000        2635.12     
  1096.14        500.000        2634.80     
  1094.72        500.000        2633.74     
  1093.31        500.000        2633.56     
  1091.90        500.000        2633.46     
  1090.48        500.000        2633.40     
  1089.07        500.000        2633.39     
  1087.65        500.000        2633.36     
  1086.24        500.000        2633.32     
  1084.83        500.000        2632.70     
  1083.41        500.000        2632.69     
  1082.00        500.000        2632.75     
  1080.59        500.000        2632.80     
  1079.17        500.000        2632.79     
  1077.76        500.000        2632.85     
  1076.34        500.000        2632.91     
  1074.93        500.000        2632.91     
  1073.52        500.000        2632.97     
  1072.10        500.000        2633.03     
  1070.69        500.000        2633.02     
  1069.28        500.000        2633.08     
  1067.86        500.000        2633.14     
  1066.45        500.000        2633.14     
  1065.03        500.000        2633.20     
  1063.62        500.000        2633.20     
  1062.21        500.000        2633.26     
  1060.79        500.000        2633.32     
  1059.38        500.000        2633.38     
  1057.97        500.000        2633.38     
  1056.55        500.000        2633.44     
  1055.14        500.000        2633.50     
  1053.72        500.000        2633.51     
  1052.31        500.000        2633.57     
  1050.90        500.000        2633.63     
  1049.48        500.000        2633.63     
  1048.07        500.000        2633.69     
  1046.65        500.000        2633.75     
  1045.24        500.000        2633.81     
  1043.83        500.000        2633.82     
  1042.41        500.000        2633.88     
  1041.00        500.000        2633.94     
  1039.59        500.000        2633.95     
  1038.17        500.000        2634.01     
  1036.76        500.000        2634.07     
  1035.34        500.000        2634.08     
  1033.93        500.000        2634.14     
  1032.52        500.000        2634.20     
  1031.10        500.000        2634.26     
  1029.69        500.000        2634.28     
  1028.28        500.000        2634.23     
  1026.86        500.000        2634.29     
  1025.45        500.000        2634.35     
  1024.03        500.000        2634.41     
  1022.62        500.000        2634.47     
  1021.21        500.000        2634.52     
  1019.79        500.000        2634.58     
  1018.38        500.000        2634.64     
  1016.97        500.000        2634.70     
  1015.55        500.000        2634.76     
  1014.14        500.000        2634.82     
  1012.72        500.000        2634.88     
  1011.31        500.000        2634.94     
  1009.90        500.000        2633.54     
  1008.48        500.000        2635.05     
  1007.07        500.000        2635.11     
  1005.66        500.000        2635.08     
  1004.24        500.000        2635.13     
  1002.83        500.000        2635.19     
  1001.41        500.000        2635.25     
  1000.00        500.000        2635.31     
