|6.6.6
Archiving\03_Data\fracLP/QFM_m1/TAY13/TAY13_6.tab                         
           1
T(K)    
  0.000000000000000E+000
  0.000000000000000E+000
           0
           3
T(K)           P(bar)         rho,kg/m3     
  2000.00        500.000        5053.94     
  1997.49        500.000        5054.68     
  1994.99        500.000        5055.41     
  1992.48        500.000        5056.15     
  1989.97        500.000        5056.89     
  1987.47        500.000        5057.62     
  1984.96        500.000        5058.36     
  1982.46        500.000        5059.09     
  1979.95        500.000        5059.83     
  1977.44        500.000        5060.56     
  1974.94        500.000        5061.29     
  1972.43        500.000        5062.03     
  1969.92        500.000        5062.76     
  1967.42        500.000        5063.49     
  1964.91        500.000        5064.22     
  1962.41        500.000        5064.95     
  1959.90        500.000        5065.69     
  1957.39        500.000        5066.42     
  1954.89        500.000        3977.58     
  1952.38        500.000        2931.01     
  1949.87        500.000        2931.61     
  1947.37        500.000        2932.20     
  1944.86        500.000        2932.80     
  1942.36        500.000        2933.39     
  1939.85        500.000        2933.99     
  1937.34        500.000        2934.58     
  1934.84        500.000        2935.18     
  1932.33        500.000        2935.77     
  1929.82        500.000        2936.37     
  1927.32        500.000        2936.97     
  1924.81        500.000        2937.56     
  1922.31        500.000        2938.16     
  1919.80        500.000        2938.75     
  1917.29        500.000        2939.35     
  1914.79        500.000        2939.94     
  1912.28        500.000        2940.54     
  1909.77        500.000        2941.13     
  1907.27        500.000        2941.73     
  1904.76        500.000        2942.32     
  1902.26        500.000        2942.92     
  1899.75        500.000        3159.92     
  1897.24        500.000        3160.49     
  1894.74        500.000        3162.36     
  1892.23        500.000        3163.96     
  1889.72        500.000        3165.99     
  1887.22        500.000        3167.29     
  1884.71        500.000        3168.99     
  1882.21        500.000        3170.92     
  1879.70        500.000        3172.59     
  1877.19        500.000        3173.82     
  1874.69        500.000        3176.12     
  1872.18        500.000        3177.72     
  1869.67        500.000        3179.53     
  1867.17        500.000        3181.16     
  1864.66        500.000        3183.07     
  1862.16        500.000        3198.62     
  1859.65        500.000        3207.23     
  1857.14        500.000        3209.15     
  1854.64        500.000        3210.83     
  1852.13        500.000        3211.43     
  1849.62        500.000        3214.09     
  1847.12        500.000        3216.55     
  1844.61        500.000        3218.07     
  1842.11        500.000        3220.16     
  1839.60        500.000        3221.94     
  1837.09        500.000        3224.09     
  1834.59        500.000        3225.59     
  1832.08        500.000        3228.11     
  1829.57        500.000        3228.26     
  1827.07        500.000        3231.87     
  1824.56        500.000        3233.36     
  1822.06        500.000        3235.59     
  1819.55        500.000        4388.70     
  1817.04        500.000        3235.98     
  1814.54        500.000        3240.93     
  1812.03        500.000        3243.09     
  1809.52        500.000        3244.83     
  1807.02        500.000        3245.69     
  1804.51        500.000        3248.46     
  1802.01        500.000        3250.68     
  1799.50        500.000        3252.61     
  1796.99        500.000        3254.43     
  1794.49        500.000        3256.37     
  1791.98        500.000        3258.18     
  1789.47        500.000        3260.53     
  1786.97        500.000        3262.22     
  1784.46        500.000        3264.37     
  1781.95        500.000        3266.10     
  1779.45        500.000        3268.63     
  1776.94        500.000        3269.75     
  1774.44        500.000        3271.92     
  1771.93        500.000        3274.10     
  1769.42        500.000        3276.20     
  1766.92        500.000        3278.21     
  1764.41        500.000        3279.26     
  1761.90        500.000        3281.91     
  1759.40        500.000        3284.14     
  1756.89        500.000        3286.50     
  1754.39        500.000        3287.60     
  1751.88        500.000        3290.14     
  1749.37        500.000        3292.23     
  1746.87        500.000        3294.58     
  1744.36        500.000        3296.12     
  1741.85        500.000        3298.28     
  1739.35        500.000        3300.01     
  1736.84        500.000        3302.55     
  1734.34        500.000        3304.09     
  1731.83        500.000        3306.75     
  1729.32        500.000        3306.92     
  1726.82        500.000        3310.36     
  1724.31        500.000        3312.25     
  1721.80        500.000        3314.61     
  1719.30        500.000        3316.59     
  1716.79        500.000        3318.82     
  1714.29        500.000        3321.09     
  1711.78        500.000        3322.97     
  1709.27        500.000        3324.18     
  1706.77        500.000        3326.64     
  1704.26        500.000        3328.60     
  1701.75        500.000        3330.72     
  1699.25        500.000        3334.49     
  1696.74        500.000        3334.79     
  1694.24        500.000        3336.43     
  1691.73        500.000        3339.98     
  1689.22        500.000        3340.28     
  1686.72        500.000        3342.58     
  1684.21        500.000        3344.42     
  1681.70        500.000        3347.51     
  1679.20        500.000        3348.08     
  1676.69        500.000        3360.96     
  1674.19        500.000        3353.33     
  1671.68        500.000        3355.34     
  1669.17        500.000        3357.29     
  1666.67        500.000        3359.64     
  1664.16        500.000        3366.35     
  1661.65        500.000        3362.34     
  1659.15        500.000        3365.92     
  1656.64        500.000        3367.57     
  1654.14        500.000        3371.25     
  1651.63        500.000        3371.74     
  1649.12        500.000        3373.44     
  1646.62        500.000        3375.24     
  1644.11        500.000        3378.40     
  1641.60        500.000        3380.10     
  1639.10        500.000        3381.58     
  1636.59        500.000        3383.94     
  1634.09        500.000        3385.47     
  1631.58        500.000        3387.65     
  1629.07        500.000        3389.52     
  1626.57        500.000        3392.06     
  1624.06        500.000        3393.51     
  1621.55        500.000        3395.98     
  1619.05        500.000        3399.13     
  1616.54        500.000        3399.80     
  1614.04        500.000        3401.74     
  1611.53        500.000        3403.64     
  1609.02        500.000        3405.04     
  1606.52        500.000        3407.77     
  1604.01        500.000        3408.02     
  1601.50        500.000        3412.28     
  1599.00        500.000        3412.93     
  1596.49        500.000        3416.38     
  1593.98        500.000        3415.75     
  1591.48        500.000        3420.55     
  1588.97        500.000        3420.75     
  1586.47        500.000        3423.12     
  1583.96        500.000        3425.57     
  1581.45        500.000        3426.81     
  1578.95        500.000        3429.23     
  1576.44        500.000        3431.56     
  1573.93        500.000        3433.48     
  1571.43        500.000        3434.80     
  1568.92        500.000        3436.80     
  1566.42        500.000        3439.00     
  1563.91        500.000        3319.61     
  1561.40        500.000        3297.56     
  1558.90        500.000        3301.12     
  1556.39        500.000        3301.76     
  1553.88        500.000        3302.30     
  1551.38        500.000        3303.78     
  1548.87        500.000        3305.16     
  1546.37        500.000        3305.94     
  1543.86        500.000        3307.96     
  1541.35        500.000        3309.00     
  1538.85        500.000        3309.69     
  1536.34        500.000        3311.33     
  1533.83        500.000        3311.99     
  1531.33        500.000        3313.22     
  1528.82        500.000        3314.71     
  1526.32        500.000        3316.59     
  1523.81        500.000        3316.64     
  1521.30        500.000        3318.13     
  1518.80        500.000        3321.66     
  1516.29        500.000        3321.11     
  1513.78        500.000        3322.42     
  1511.28        500.000        3322.17     
  1508.77        500.000        3324.71     
  1506.27        500.000        3325.78     
  1503.76        500.000        3324.25     
  1501.25        500.000        3326.23     
  1498.75        500.000        3329.95     
  1496.24        500.000        3328.10     
  1493.73        500.000        3329.64     
  1491.23        500.000        3330.83     
  1488.72        500.000        3332.61     
  1486.22        500.000        3333.39     
  1483.71        500.000        3333.03     
  1481.20        500.000        3336.50     
  1478.70        500.000        3335.24     
  1476.19        500.000        3338.20     
  1473.68        500.000        3337.76     
  1471.18        500.000        3338.71     
  1468.67        500.000        3340.40     
  1466.17        500.000        3340.49     
  1463.66        500.000        3343.02     
  1461.15        500.000        3348.46     
  1458.65        500.000        3349.19     
  1456.14        500.000        3348.27     
  1453.63        500.000        3389.70     
  1451.13        500.000        3348.61     
  1448.62        500.000        3350.15     
  1446.12        500.000        3351.20     
  1443.61        500.000        3353.28     
  1441.10        500.000        3354.64     
  1438.60        500.000        3340.81     
  1436.09        500.000        3342.50     
  1433.58        500.000        3344.47     
  1431.08        500.000        3346.50     
  1428.57        500.000        3348.90     
  1426.07        500.000        3349.53     
  1423.56        500.000        3351.45     
  1421.05        500.000        3352.82     
  1418.55        500.000        3354.09     
  1416.04        500.000        3355.64     
  1413.53        500.000        3340.38     
  1411.03        500.000        3327.34     
  1408.52        500.000        3329.64     
  1406.02        500.000        3332.19     
  1403.51        500.000        3334.64     
  1401.00        500.000        3337.20     
  1398.50        500.000        3339.42     
  1395.99        500.000        3342.16     
  1393.48        500.000        3344.86     
  1390.98        500.000        3171.87     
  1388.47        500.000        3154.53     
  1385.96        500.000        3157.69     
  1383.46        500.000        3160.54     
  1380.95        500.000        3163.53     
  1378.45        500.000        3166.79     
  1375.94        500.000        3169.65     
  1373.43        500.000        3172.68     
  1370.93        500.000        3180.73     
  1368.42        500.000        3206.54     
  1365.91        500.000        3210.90     
  1363.41        500.000        3215.38     
  1360.90        500.000        3219.73     
  1358.40        500.000        3224.34     
  1355.89        500.000        3228.73     
  1353.38        500.000        3233.31     
  1350.88        500.000        3237.78     
  1348.37        500.000        3242.21     
  1345.86        500.000        3246.67     
  1343.36        500.000        3251.31     
  1340.85        500.000        3255.37     
  1338.35        500.000        3260.03     
  1335.84        500.000        3256.83     
  1333.33        500.000        3266.91     
  1330.83        500.000        3270.44     
  1328.32        500.000        3273.32     
  1325.81        500.000        3277.55     
  1323.31        500.000        3280.64     
  1320.80        500.000        3283.59     
  1318.30        500.000        3287.59     
  1315.79        500.000        3290.80     
  1313.28        500.000        3293.95     
  1310.78        500.000        3296.93     
  1308.27        500.000        3300.37     
  1305.76        500.000        3303.39     
  1303.26        500.000        3304.00     
  1300.75        500.000        3310.97     
  1298.25        500.000        3312.43     
  1295.74        500.000        3315.19     
  1293.23        500.000        3318.18     
  1290.73        500.000        3320.25     
  1288.22        500.000        3323.31     
  1285.71        500.000        3325.05     
  1283.21        500.000        3328.75     
  1280.70        500.000        3331.38     
  1278.20        500.000        3333.53     
  1275.69        500.000        3336.67     
  1273.18        500.000        3337.82     
  1270.68        500.000        3339.87     
  1268.17        500.000        3341.86     
  1265.66        500.000        2835.14     
  1263.16        500.000        2829.28     
  1260.65        500.000        2834.19     
  1258.15        500.000        2838.87     
  1255.64        500.000        2843.37     
  1253.13        500.000        2847.97     
  1250.63        500.000        2852.70     
  1248.12        500.000        2856.84     
  1245.61        500.000        2861.60     
  1243.11        500.000        2869.80     
  1240.60        500.000        2882.56     
  1238.10        500.000        2887.75     
  1235.59        500.000        2888.23     
  1233.08        500.000        2888.41     
  1230.58        500.000        2888.34     
  1228.07        500.000        2888.01     
  1225.56        500.000        2887.48     
  1223.06        500.000        2886.69     
  1220.55        500.000        2885.80     
  1218.05        500.000        2887.91     
  1215.54        500.000        2883.16     
  1213.03        500.000        2881.60     
  1210.53        500.000        2881.92     
  1208.02        500.000        2815.66     
  1205.51        500.000        2691.96     
  1203.01        500.000        2691.53     
  1200.50        500.000        2687.08     
  1197.99        500.000        2689.59     
  1195.49        500.000        2681.90     
  1192.98        500.000        2684.32     
  1190.48        500.000        2674.15     
  1187.97        500.000        2666.93     
  1185.46        500.000        2640.89     
  1182.96        500.000        2640.86     
  1180.45        500.000        2641.11     
  1177.94        500.000        2641.07     
  1175.44        500.000        2641.15     
  1172.93        500.000        2641.24     
  1170.43        500.000        2641.32     
  1167.92        500.000        2641.41     
  1165.41        500.000        2641.50     
  1162.91        500.000        2641.58     
  1160.40        500.000        2641.72     
  1157.89        500.000        2641.69     
  1155.39        500.000        2641.85     
  1152.88        500.000        2641.91     
  1150.38        500.000        2641.99     
  1147.87        500.000        2642.09     
  1145.36        500.000        2642.18     
  1142.86        500.000        2642.29     
  1140.35        500.000        2642.34     
  1137.84        500.000        2642.45     
  1135.34        500.000        2642.52     
  1132.83        500.000        2642.61     
  1130.33        500.000        2642.70     
  1127.82        500.000        2642.79     
  1125.31        500.000        2642.88     
  1122.81        500.000        2642.98     
  1120.30        500.000        2643.07     
  1117.79        500.000        2643.18     
  1115.29        500.000        2643.31     
  1112.78        500.000        2643.34     
  1110.28        500.000        2643.48     
  1107.77        500.000        2643.53     
  1105.26        500.000        2643.62     
  1102.76        500.000        2643.71     
  1100.25        500.000        2643.72     
  1097.74        500.000        2643.90     
  1095.24        500.000        2643.99     
  1092.73        500.000        2644.09     
  1090.23        500.000        2644.18     
  1087.72        500.000        2644.30     
  1085.21        500.000        2644.37     
  1082.71        500.000        2644.46     
  1080.20        500.000        2644.57     
  1077.69        500.000        2644.65     
  1075.19        500.000        2644.75     
  1072.68        500.000        2644.84     
  1070.18        500.000        2644.93     
  1067.67        500.000        2645.03     
  1065.16        500.000        2645.12     
  1062.66        500.000        2645.22     
  1060.15        500.000        2644.19     
  1057.64        500.000        2644.29     
  1055.14        500.000        2644.40     
  1052.63        500.000        2644.51     
  1050.13        500.000        2645.70     
  1047.62        500.000        2644.73     
  1045.11        500.000        2644.84     
  1042.61        500.000        2644.94     
  1040.10        500.000        2645.03     
  1037.59        500.000        2646.20     
  1035.09        500.000        2646.29     
  1032.58        500.000        2646.40     
  1030.08        500.000        2646.47     
  1027.57        500.000        2646.57     
  1025.06        500.000        2646.66     
  1022.56        500.000        2646.75     
  1020.05        500.000        2646.88     
  1017.54        500.000        2646.94     
  1015.04        500.000        2647.03     
  1012.53        500.000        2647.17     
  1010.03        500.000        2647.22     
  1007.52        500.000        2647.31     
  1005.01        500.000        2647.45     
  1002.51        500.000        2647.54     
  1000.00        500.000        2647.93     
