|6.6.6
Archiving\03_Data\eqfracLP/QFM_m1.25/EETA/EETA_6.tab                      
           1
T(K)    
  0.000000000000000E+000
  0.000000000000000E+000
           0
           3
T(K)           P(bar)         rho,kg/m3     
  1413.46        500.000        3314.52     
  1412.42        500.000        3315.39     
  1411.39        500.000        3316.55     
  1410.35        500.000        3317.73     
  1409.32        500.000        3318.57     
  1408.28        500.000        3146.09     
  1407.24        500.000        3207.68     
  1406.21        500.000        3137.63     
  1405.17        500.000        3138.39     
  1404.13        500.000        3139.95     
  1403.10        500.000        3141.15     
  1402.06        500.000        3142.23     
  1401.03        500.000        3143.73     
  1399.99        500.000        3144.63     
  1398.95        500.000        3145.86     
  1397.92        500.000        3146.55     
  1396.88        500.000        3148.41     
  1395.84        500.000        3149.20     
  1394.81        500.000        3150.62     
  1393.77        500.000        3151.53     
  1392.74        500.000        3152.87     
  1391.70        500.000        3175.54     
  1390.66        500.000        3157.33     
  1389.63        500.000        3168.93     
  1388.59        500.000        3173.35     
  1387.55        500.000        3170.87     
  1386.52        500.000        3172.27     
  1385.48        500.000        3173.81     
  1384.45        500.000        3175.49     
  1383.41        500.000        3177.04     
  1382.37        500.000        3178.49     
  1381.34        500.000        3179.89     
  1380.30        500.000        3181.65     
  1379.26        500.000        3183.40     
  1378.23        500.000        3184.51     
  1377.19        500.000        3186.31     
  1376.16        500.000        3187.88     
  1375.12        500.000        3189.49     
  1374.08        500.000        3190.97     
  1373.05        500.000        3192.56     
  1372.01        500.000        3194.14     
  1370.97        500.000        3195.69     
  1369.94        500.000        3197.47     
  1368.90        500.000        3198.74     
  1367.87        500.000        3200.40     
  1366.83        500.000        3202.05     
  1365.79        500.000        3203.45     
  1364.76        500.000        3205.13     
  1363.72        500.000        3206.84     
  1362.68        500.000        3208.43     
  1361.65        500.000        3210.14     
  1360.61        500.000        3211.70     
  1359.58        500.000        3213.35     
  1358.54        500.000        3214.75     
  1357.50        500.000        3216.50     
  1356.47        500.000        3218.07     
  1355.43        500.000        3219.73     
  1354.39        500.000        3221.27     
  1353.36        500.000        3222.82     
  1352.32        500.000        3224.48     
  1351.29        500.000        3226.00     
  1350.25        500.000        3227.60     
  1349.21        500.000        3229.09     
  1348.18        500.000        3230.66     
  1347.14        500.000        3232.29     
  1346.10        500.000        3233.84     
  1345.07        500.000        3235.49     
  1344.03        500.000        3236.96     
  1343.00        500.000        3238.66     
  1341.96        500.000        3240.16     
  1340.92        500.000        3241.67     
  1339.89        500.000        3243.27     
  1338.85        500.000        3244.72     
  1337.81        500.000        3246.22     
  1336.78        500.000        3233.55     
  1335.74        500.000        3256.77     
  1334.71        500.000        3257.78     
  1333.67        500.000        3252.97     
  1332.63        500.000        3253.82     
  1331.60        500.000        3255.14     
  1330.56        500.000        3256.64     
  1329.52        500.000        3258.01     
  1328.49        500.000        3259.18     
  1327.45        500.000        3260.78     
  1326.42        500.000        3262.04     
  1325.38        500.000        3263.38     
  1324.34        500.000        3264.83     
  1323.31        500.000        3266.12     
  1322.27        500.000        3267.55     
  1321.23        500.000        3268.81     
  1320.20        500.000        3270.00     
  1319.16        500.000        3271.31     
  1318.13        500.000        3272.52     
  1317.09        500.000        3273.79     
  1316.05        500.000        3274.87     
  1315.02        500.000        3275.85     
  1313.98        500.000        3277.46     
  1312.94        500.000        3278.41     
  1311.91        500.000        3279.52     
  1310.87        500.000        3280.48     
  1309.84        500.000        3281.45     
  1308.80        500.000        3282.67     
  1307.76        500.000        3283.68     
  1306.73        500.000        3284.64     
  1305.69        500.000        3285.52     
  1304.65        500.000        3286.57     
  1303.62        500.000        3287.33     
  1302.58        500.000        3288.30     
  1301.55        500.000        3289.12     
  1300.51        500.000        3289.93     
  1299.47        500.000        3290.65     
  1298.44        500.000        3291.49     
  1297.40        500.000        3292.08     
  1296.36        500.000        3292.89     
  1295.33        500.000        3293.47     
  1294.29        500.000        3294.12     
  1293.26        500.000        3294.60     
  1292.22        500.000        3295.22     
  1291.18        500.000        3295.74     
  1290.15        500.000        3330.02     
  1289.11        500.000        3356.67     
  1288.07        500.000        3357.28     
  1287.04        500.000        3357.86     
  1286.00        500.000        3358.39     
  1284.97        500.000        3359.21     
  1283.93        500.000        3359.57     
  1282.89        500.000        3359.75     
  1281.86        500.000        3360.41     
  1280.82        500.000        3361.17     
  1279.78        500.000        3361.60     
  1278.75        500.000        3361.84     
  1277.71        500.000        3362.05     
  1276.68        500.000        3362.47     
  1275.64        500.000        3363.28     
  1274.60        500.000        3363.42     
  1273.57        500.000        3363.39     
  1272.53        500.000        2888.92     
  1271.50        500.000        2844.75     
  1270.46        500.000        2847.02     
  1269.42        500.000        2848.51     
  1268.39        500.000        2849.34     
  1267.35        500.000        2851.35     
  1266.31        500.000        2853.32     
  1265.28        500.000        2855.16     
  1264.24        500.000        2856.96     
  1263.21        500.000        2858.62     
  1262.17        500.000        2860.31     
  1261.13        500.000        2861.80     
  1260.10        500.000        2863.37     
  1259.06        500.000        2864.77     
  1258.02        500.000        2866.07     
  1256.99        500.000        2866.85     
  1255.95        500.000        2869.20     
  1254.92        500.000        2869.68     
  1253.88        500.000        2870.95     
  1252.84        500.000        2871.86     
  1251.81        500.000        2872.88     
  1250.77        500.000        2873.74     
  1249.73        500.000        2874.68     
  1248.70        500.000        2875.45     
  1247.66        500.000        2876.04     
  1246.63        500.000        2876.89     
  1245.59        500.000        2877.45     
  1244.55        500.000        2877.91     
  1243.52        500.000        2878.46     
  1242.48        500.000        2878.90     
  1241.44        500.000        2879.29     
  1240.41        500.000        2879.62     
  1239.37        500.000        2879.92     
  1238.34        500.000        2880.08     
  1237.30        500.000        2880.42     
  1236.26        500.000        2883.20     
  1235.23        500.000        2877.69     
  1234.19        500.000        2880.57     
  1233.15        500.000        2880.61     
  1232.12        500.000        2880.57     
  1231.08        500.000        2880.56     
  1230.05        500.000        2880.44     
  1229.01        500.000        2880.28     
  1227.97        500.000        2880.06     
  1226.94        500.000        2879.83     
  1225.90        500.000        2880.12     
  1224.86        500.000        2878.87     
  1223.83        500.000        2879.04     
  1222.79        500.000        2878.78     
  1221.76        500.000        2878.31     
  1220.72        500.000        2877.45     
  1219.68        500.000        2878.30     
  1218.65        500.000        2877.10     
  1217.61        500.000        2876.86     
  1216.57        500.000        2876.35     
  1215.54        500.000        2878.96     
  1214.50        500.000        2876.28     
  1213.47        500.000        2813.21     
  1212.43        500.000        3553.97     
  1211.39        500.000        2929.83     
  1210.36        500.000        2814.11     
  1209.32        500.000        2854.79     
  1208.28        500.000        2801.13     
  1207.25        500.000        2682.40     
  1206.21        500.000        2697.81     
  1205.18        500.000        2717.77     
  1204.14        500.000        2694.26     
  1203.10        500.000        2731.20     
  1202.07        500.000        2692.86     
  1201.03        500.000        2680.09     
  1199.99        500.000        2684.84     
  1198.96        500.000        2567.65     
  1197.92        500.000        2697.89     
  1196.89        500.000        2688.35     
  1195.85        500.000        2695.02     
  1194.81        500.000        2670.60     
  1193.78        500.000        2676.58     
  1192.74        500.000        2666.47     
  1191.70        500.000        2669.58     
  1190.67        500.000        2682.36     
  1189.63        500.000        2674.12     
  1188.60        500.000        2658.41     
  1187.56        500.000        2648.05     
  1186.52        500.000        2642.54     
  1185.49        500.000        2638.34     
  1184.45        500.000        2638.39     
  1183.41        500.000        2638.44     
  1182.38        500.000        2638.47     
  1181.34        500.000        2638.48     
  1180.31        500.000        2638.58     
  1179.27        500.000        2638.63     
  1178.23        500.000        2638.67     
  1177.20        500.000        2638.70     
  1176.16        500.000        2638.75     
  1175.12        500.000        2638.79     
  1174.09        500.000        2638.83     
  1173.05        500.000        2638.88     
  1172.02        500.000        2638.92     
  1170.98        500.000        2638.96     
  1169.94        500.000        2638.97     
  1168.91        500.000        2638.63     
  1167.87        500.000        2635.23     
  1166.83        500.000        2635.27     
  1165.80        500.000        2635.25     
  1164.76        500.000        2635.30     
  1163.73        500.000        2635.21     
  1162.69        500.000        2635.24     
  1161.65        500.000        2635.25     
  1160.62        500.000        2635.08     
  1159.58        500.000        2635.18     
  1158.54        500.000        2635.31     
  1157.51        500.000        2635.30     
  1156.47        500.000        2635.32     
  1155.44        500.000        2635.34     
  1154.40        500.000        2635.36     
  1153.36        500.000        2635.38     
  1152.33        500.000        2635.40     
  1151.29        500.000        2635.41     
  1150.25        500.000        2635.24     
  1149.22        500.000        2635.46     
  1148.18        500.000        2635.43     
  1147.15        500.000        2635.54     
  1146.11        500.000        2635.54     
  1145.07        500.000        2635.57     
  1144.04        500.000        2635.61     
  1143.00        500.000        2635.63     
  1141.96        500.000        2635.66     
  1140.93        500.000        2635.64     
  1139.89        500.000        2635.64     
  1138.86        500.000        2635.68     
  1137.82        500.000        2635.73     
  1136.78        500.000        2635.77     
  1135.75        500.000        2635.68     
  1134.71        500.000        2635.81     
  1133.68        500.000        2635.87     
  1132.64        500.000        2635.81     
  1131.60        500.000        2635.93     
  1130.57        500.000        2635.97     
  1129.53        500.000        2635.91     
  1128.49        500.000        2636.03     
  1127.46        500.000        2636.07     
  1126.42        500.000        2636.10     
  1125.39        500.000        2636.12     
  1124.35        500.000        2636.16     
  1123.31        500.000        2636.19     
  1122.28        500.000        2636.21     
  1121.24        500.000        2636.25     
  1120.20        500.000        2636.29     
  1119.17        500.000        2636.36     
  1118.13        500.000        2636.35     
  1117.10        500.000        2636.37     
  1116.06        500.000        2636.41     
  1115.02        500.000        2636.33     
  1113.99        500.000        2636.49     
  1112.95        500.000        2636.40     
  1111.91        500.000        2636.56     
  1110.88        500.000        2636.47     
  1109.84        500.000        2636.51     
  1108.81        500.000        2636.64     
  1107.77        500.000        2636.57     
  1106.73        500.000        2636.61     
  1105.70        500.000        2636.75     
  1104.66        500.000        2636.67     
  1103.62        500.000        2636.70     
  1102.59        500.000        2636.84     
  1101.55        500.000        2636.77     
  1100.52        500.000        2636.81     
  1099.48        500.000        2636.96     
  1098.44        500.000        2636.89     
  1097.41        500.000        2636.92     
  1096.37        500.000        2637.02     
  1095.33        500.000        2637.00     
  1094.30        500.000        2637.02     
  1093.26        500.000        2637.12     
  1092.23        500.000        2637.09     
  1091.19        500.000        2637.12     
  1090.15        500.000        2637.22     
  1089.12        500.000        2637.20     
  1088.08        500.000        2637.24     
  1087.04        500.000        2637.33     
  1086.01        500.000        2637.30     
  1084.97        500.000        2637.34     
  1083.94        500.000        2637.45     
  1082.90        500.000        2637.42     
  1081.86        500.000        2637.45     
  1080.83        500.000        2637.54     
  1079.79        500.000        2637.52     
  1078.75        500.000        2637.55     
  1077.72        500.000        2637.65     
  1076.68        500.000        2637.69     
  1075.65        500.000        2637.73     
  1074.61        500.000        2637.76     
  1073.57        500.000        2637.80     
  1072.54        500.000        2637.84     
  1071.50        500.000        2637.88     
  1070.46        500.000        2637.91     
  1069.43        500.000        2637.95     
  1068.39        500.000        2637.99     
  1067.36        500.000        2638.02     
  1066.32        500.000        2638.06     
  1065.28        500.000        2638.10     
  1064.25        500.000        2638.14     
  1063.21        500.000        2638.17     
  1062.17        500.000        2638.21     
  1061.14        500.000        2638.25     
  1060.10        500.000        2638.29     
  1059.07        500.000        2638.32     
  1058.03        500.000        2638.36     
  1056.99        500.000        2638.40     
  1055.96        500.000        2638.44     
  1054.92        500.000        2638.47     
  1053.88        500.000        2638.51     
  1052.85        500.000        2638.55     
  1051.81        500.000        2638.59     
  1050.78        500.000        2638.62     
  1049.74        500.000        2638.68     
  1048.70        500.000        2638.72     
  1047.67        500.000        2638.76     
  1046.63        500.000        2638.80     
  1045.59        500.000        2638.84     
  1044.56        500.000        2638.87     
  1043.52        500.000        2638.91     
  1042.49        500.000        2638.95     
  1041.45        500.000        2638.99     
  1040.41        500.000        2639.02     
  1039.38        500.000        2639.06     
  1038.34        500.000        2639.10     
  1037.30        500.000        2639.14     
  1036.27        500.000        2639.17     
  1035.23        500.000        2639.21     
  1034.20        500.000        2639.25     
  1033.16        500.000        2639.29     
  1032.12        500.000        2639.32     
  1031.09        500.000        2639.36     
  1030.05        500.000        2639.40     
  1029.01        500.000        2639.44     
  1027.98        500.000        2639.37     
  1026.94        500.000        2639.51     
  1025.91        500.000        2639.55     
  1024.87        500.000        2639.59     
  1023.83        500.000        2639.63     
  1022.80        500.000        2639.66     
  1021.76        500.000        2639.70     
  1020.72        500.000        2639.69     
  1019.69        500.000        2639.78     
  1018.65        500.000        2639.82     
  1017.62        500.000        2639.86     
  1016.58        500.000        2639.89     
  1015.54        500.000        2639.93     
  1014.51        500.000        2639.93     
  1013.47        500.000        2640.01     
  1012.43        500.000        2640.04     
  1011.40        500.000        2640.08     
  1010.36        500.000        2640.12     
  1009.33        500.000        2640.16     
  1008.29        500.000        2640.19     
  1007.25        500.000        2640.23     
  1006.22        500.000        2640.27     
  1005.18        500.000        2640.31     
  1004.14        500.000        2640.35     
  1003.11        500.000        2640.38     
  1002.07        500.000        2640.42     
  1001.04        500.000        2640.46     
  1000.00        500.000        2640.50     
