|6.6.6
Archiving\03_Data\eqLP/QFM_m0.75/KHA22/KHA22_6.tab                        
           1
T(K)    
  0.000000000000000E+000
  0.000000000000000E+000
           0
           3
T(K)           P(bar)         rho,kg/m3     
  2000.00        500.000        5145.98     
  1996.79        500.000        5146.94     
  1993.59        500.000        5147.91     
  1990.38        500.000        5148.87     
  1987.18        500.000        5149.84     
  1983.97        500.000        5150.80     
  1980.77        500.000        5151.76     
  1977.56        500.000        3863.91     
  1974.36        500.000        3844.76     
  1971.15        500.000        3818.75     
  1967.95        500.000        3794.61     
  1964.74        500.000        3772.15     
  1961.54        500.000        3751.21     
  1958.33        500.000        3731.63     
  1955.13        500.000        3713.29     
  1951.92        500.000        3696.08     
  1948.72        500.000        3679.90     
  1945.51        500.000        3639.82     
  1942.31        500.000        3605.26     
  1939.10        500.000        3575.16     
  1935.90        500.000        3548.71     
  1932.69        500.000        3525.31     
  1929.49        500.000        3504.45     
  1926.28        500.000        3485.77     
  1923.08        500.000        3468.93     
  1919.87        500.000        3417.08     
  1916.67        500.000        3379.25     
  1913.46        500.000        3350.46     
  1910.26        500.000        3327.86     
  1907.05        500.000        3309.67     
  1903.85        500.000        3294.73     
  1900.64        500.000        3282.27     
  1897.44        500.000        3271.72     
  1894.23        500.000        3255.63     
  1891.03        500.000        3243.30     
  1887.82        500.000        3233.59     
  1884.62        500.000        3225.76     
  1881.41        500.000        3185.68     
  1878.21        500.000        3180.60     
  1875.00        500.000        3181.17     
  1871.79        500.000        3181.72     
  1868.59        500.000        3183.09     
  1865.38        500.000        3184.34     
  1862.18        500.000        3185.51     
  1858.97        500.000        3186.61     
  1855.77        500.000        3187.64     
  1852.56        500.000        3188.62     
  1849.36        500.000        3189.55     
  1846.15        500.000        3190.44     
  1842.95        500.000        3192.03     
  1839.74        500.000        3193.53     
  1836.54        500.000        3194.96     
  1833.33        500.000        3196.31     
  1830.13        500.000        3197.61     
  1826.92        500.000        3198.85     
  1823.72        500.000        3200.04     
  1820.51        500.000        3201.19     
  1817.31        500.000        3202.93     
  1814.10        500.000        3204.59     
  1810.90        500.000        3206.20     
  1807.69        500.000        3207.74     
  1804.49        500.000        3209.22     
  1801.28        500.000        3210.66     
  1798.08        500.000        3212.05     
  1794.87        500.000        3213.39     
  1791.67        500.000        3215.09     
  1788.46        500.000        3216.74     
  1785.26        500.000        3218.33     
  1782.05        500.000        3219.88     
  1778.85        500.000        3221.38     
  1775.64        500.000        3222.84     
  1772.44        500.000        3224.27     
  1769.23        500.000        3225.66     
  1766.03        500.000        3227.24     
  1762.82        500.000        3228.79     
  1759.62        500.000        3230.29     
  1756.41        500.000        3231.77     
  1753.21        500.000        3233.21     
  1750.00        500.000        3234.61     
  1746.79        500.000        3235.99     
  1743.59        500.000        3237.34     
  1740.38        500.000        3238.82     
  1737.18        500.000        3240.28     
  1733.97        500.000        3241.70     
  1730.77        500.000        3243.10     
  1727.56        500.000        3244.47     
  1724.36        500.000        3245.82     
  1721.15        500.000        3247.14     
  1717.95        500.000        3248.44     
  1714.74        500.000        3249.80     
  1711.54        500.000        3251.14     
  1708.33        500.000        3252.46     
  1705.13        500.000        3253.75     
  1701.92        500.000        3255.03     
  1698.72        500.000        3256.29     
  1695.51        500.000        3257.53     
  1692.31        500.000        3258.75     
  1689.10        500.000        3259.97     
  1685.90        500.000        3261.18     
  1682.69        500.000        3262.37     
  1679.49        500.000        3263.54     
  1676.28        500.000        3264.70     
  1673.08        500.000        3265.85     
  1669.87        500.000        3266.98     
  1666.67        500.000        3268.10     
  1663.46        500.000        3269.19     
  1660.26        500.000        3270.27     
  1657.05        500.000        3271.34     
  1653.85        500.000        3272.39     
  1650.64        500.000        3273.44     
  1647.44        500.000        3274.48     
  1644.23        500.000        3275.50     
  1641.03        500.000        3276.52     
  1637.82        500.000        3277.49     
  1634.62        500.000        3278.45     
  1631.41        500.000        3279.40     
  1628.21        500.000        3280.34     
  1625.00        500.000        3281.28     
  1621.79        500.000        3282.21     
  1618.59        500.000        3283.13     
  1615.38        500.000        3284.05     
  1612.18        500.000        3284.93     
  1608.97        500.000        3285.80     
  1605.77        500.000        3286.67     
  1602.56        500.000        3287.53     
  1599.36        500.000        3288.37     
  1596.15        500.000        3289.21     
  1592.95        500.000        3290.03     
  1589.74        500.000        3290.51     
  1586.54        500.000        3289.91     
  1583.33        500.000        3289.35     
  1580.13        500.000        3288.82     
  1576.92        500.000        3288.32     
  1573.72        500.000        3287.84     
  1570.51        500.000        3287.40     
  1567.31        500.000        3286.97     
  1564.10        500.000        3286.58     
  1560.90        500.000        3286.43     
  1557.69        500.000        3286.31     
  1554.49        500.000        3286.19     
  1551.28        500.000        3286.08     
  1548.08        500.000        3285.99     
  1544.87        500.000        3285.90     
  1541.67        500.000        3285.83     
  1538.46        500.000        3285.77     
  1535.26        500.000        3285.84     
  1532.05        500.000        3285.91     
  1528.85        500.000        3285.99     
  1525.64        500.000        3286.08     
  1522.44        500.000        3286.17     
  1519.23        500.000        3286.27     
  1516.03        500.000        3286.37     
  1512.82        500.000        3286.48     
  1509.62        500.000        3286.65     
  1506.41        500.000        3286.83     
  1503.21        500.000        3287.00     
  1500.00        500.000        3287.19     
  1496.79        500.000        3287.37     
  1493.59        500.000        3287.56     
  1490.38        500.000        3287.75     
  1487.18        500.000        3287.94     
  1483.97        500.000        3288.17     
  1480.77        500.000        3288.41     
  1477.56        500.000        3288.64     
  1474.36        500.000        3288.88     
  1471.15        500.000        3289.12     
  1467.95        500.000        3289.36     
  1464.74        500.000        3289.61     
  1461.54        500.000        3289.86     
  1458.33        500.000        3290.12     
  1455.13        500.000        3290.38     
  1451.92        500.000        3290.65     
  1448.72        500.000        3290.92     
  1445.51        500.000        3291.19     
  1442.31        500.000        3291.54     
  1439.10        500.000        3291.91     
  1435.90        500.000        3292.28     
  1432.69        500.000        3292.69     
  1429.49        500.000        3293.10     
  1426.28        500.000        3293.51     
  1423.08        500.000        3293.92     
  1419.87        500.000        3294.33     
  1416.67        500.000        3294.74     
  1413.46        500.000        3295.15     
  1410.26        500.000        3295.56     
  1407.05        500.000        3295.99     
  1403.85        500.000        3296.42     
  1400.64        500.000        3296.86     
  1397.44        500.000        3297.30     
  1394.23        500.000        3296.51     
  1391.03        500.000        3295.75     
  1387.82        500.000        3296.18     
  1384.62        500.000        3294.44     
  1381.41        500.000        3294.87     
  1378.21        500.000        3295.30     
  1375.00        500.000        3295.74     
  1371.79        500.000        3296.17     
  1368.59        500.000        3296.60     
  1365.38        500.000        3297.03     
  1362.18        500.000        3297.47     
  1358.97        500.000        3291.03     
  1355.77        500.000        3291.46     
  1352.56        500.000        3291.88     
  1349.36        500.000        3292.31     
  1346.15        500.000        3292.74     
  1342.95        500.000        3293.16     
  1339.74        500.000        3293.59     
  1336.54        500.000        3294.02     
  1333.33        500.000        3289.27     
  1330.13        500.000        3289.70     
  1326.92        500.000        3290.12     
  1323.72        500.000        3290.54     
  1320.51        500.000        3290.96     
  1317.31        500.000        3291.38     
  1314.10        500.000        3291.81     
  1310.90        500.000        3292.23     
  1307.69        500.000        3288.41     
  1304.49        500.000        3288.83     
  1301.28        500.000        3288.30     
  1298.08        500.000        3267.76     
  1294.87        500.000        3240.94     
  1291.67        500.000        3241.35     
  1288.46        500.000        3241.75     
  1285.26        500.000        3242.16     
  1282.05        500.000        3242.31     
  1278.85        500.000        3242.71     
  1275.64        500.000        3243.12     
  1272.44        500.000        3243.52     
  1269.23        500.000        3243.93     
  1266.03        500.000        3244.33     
  1262.82        500.000        3244.73     
  1259.62        500.000        3245.13     
  1256.41        500.000        3245.06     
  1253.21        500.000        3245.46     
  1250.00        500.000        3245.86     
  1246.79        500.000        3246.26     
  1243.59        500.000        3246.67     
  1240.38        500.000        3247.07     
  1237.18        500.000        3247.47     
  1233.97        500.000        3247.87     
  1230.77        500.000        3247.83     
  1227.56        500.000        3248.23     
  1224.36        500.000        3248.63     
  1221.15        500.000        3249.03     
  1217.95        500.000        3249.43     
  1214.74        500.000        3249.83     
  1211.54        500.000        3250.23     
  1208.33        500.000        3250.62     
  1205.13        500.000        3250.62     
  1201.92        500.000        3251.02     
  1198.72        500.000        3251.41     
  1195.51        500.000        3251.81     
  1192.31        500.000        3252.21     
  1189.10        500.000        3252.61     
  1185.90        500.000        3253.00     
  1182.69        500.000        3253.40     
  1179.49        500.000        3253.42     
  1176.28        500.000        3253.82     
  1173.08        500.000        3254.21     
  1169.87        500.000        3254.61     
  1166.67        500.000        3255.00     
  1163.46        500.000        3255.40     
  1160.26        500.000        3255.79     
  1157.05        500.000        3256.19     
  1153.85        500.000        3256.25     
  1150.64        500.000        3256.64     
  1147.44        500.000        3257.04     
  1144.23        500.000        3257.43     
  1141.03        500.000        3257.82     
  1137.82        500.000        3258.21     
  1134.62        500.000        3258.61     
  1131.41        500.000        3259.00     
  1128.21        500.000        3259.09     
  1125.00        500.000        3259.48     
  1121.79        500.000        3259.87     
  1118.59        500.000        3260.26     
  1115.38        500.000        3260.65     
  1112.18        500.000        3261.05     
  1108.97        500.000        3261.44     
  1105.77        500.000        3261.83     
  1102.56        500.000        3261.95     
  1099.36        500.000        3262.34     
  1096.15        500.000        3262.73     
  1092.95        500.000        3263.12     
  1089.74        500.000        3263.51     
  1086.54        500.000        3263.89     
  1083.33        500.000        3264.28     
  1080.13        500.000        3264.67     
  1076.92        500.000        3264.83     
  1073.72        500.000        3265.22     
  1070.51        500.000        3265.61     
  1067.31        500.000        3265.99     
  1064.10        500.000        3266.38     
  1060.90        500.000        3266.77     
  1057.69        500.000        3267.15     
  1054.49        500.000        3267.54     
  1051.28        500.000        3267.74     
  1048.08        500.000        3268.11     
  1044.87        500.000        3268.48     
  1041.67        500.000        3268.87     
  1038.46        500.000        3269.23     
  1035.26        500.000        3269.60     
  1032.05        500.000        3269.97     
  1028.85        500.000        3270.36     
  1025.64        500.000        3270.70     
  1022.44        500.000        3271.09     
  1019.23        500.000        3271.48     
  1016.03        500.000        3271.87     
  1012.82        500.000        3272.25     
  1009.62        500.000        3272.64     
  1006.41        500.000        3273.03     
  1003.21        500.000        3273.42     
  1000.00        500.000        3273.64     
