|6.6.6
Archiving\03_Data\eqLP/QFM_m2.75/GRV/GRV_6.tab                            
           1
T(K)    
  0.000000000000000E+000
  0.000000000000000E+000
           0
           3
T(K)           P(bar)         rho,kg/m3     
  2000.00        500.000        3552.33     
  1996.79        500.000        3552.80     
  1993.59        500.000        3553.27     
  1990.38        500.000        3553.75     
  1987.18        500.000        3554.22     
  1983.97        500.000        3554.69     
  1980.77        500.000        3555.17     
  1977.56        500.000        3555.64     
  1974.36        500.000        3556.11     
  1971.15        500.000        3556.58     
  1967.95        500.000        3557.06     
  1964.74        500.000        3557.53     
  1961.54        500.000        3558.00     
  1958.33        500.000        3558.47     
  1955.13        500.000        3558.94     
  1951.92        500.000        3559.42     
  1948.72        500.000        3559.89     
  1945.51        500.000        3560.36     
  1942.31        500.000        3560.83     
  1939.10        500.000        3561.30     
  1935.90        500.000        3561.77     
  1932.69        500.000        3562.24     
  1929.49        500.000        3562.71     
  1926.28        500.000        3563.18     
  1923.08        500.000        3563.65     
  1919.87        500.000        3564.12     
  1916.67        500.000        3564.58     
  1913.46        500.000        3565.05     
  1910.26        500.000        3565.52     
  1907.05        500.000        3565.99     
  1903.85        500.000        3566.46     
  1900.64        500.000        3566.93     
  1897.44        500.000        3567.39     
  1894.23        500.000        3567.86     
  1891.03        500.000        3568.33     
  1887.82        500.000        3568.79     
  1884.62        500.000        3569.26     
  1881.41        500.000        3569.73     
  1878.21        500.000        3570.19     
  1875.00        500.000        3570.66     
  1871.79        500.000        3571.13     
  1868.59        500.000        3571.59     
  1865.38        500.000        3572.06     
  1862.18        500.000        3572.52     
  1858.97        500.000        3572.99     
  1855.77        500.000        3573.45     
  1852.56        500.000        3573.92     
  1849.36        500.000        3574.38     
  1846.15        500.000        3574.85     
  1842.95        500.000        3575.31     
  1839.74        500.000        3575.78     
  1836.54        500.000        3576.24     
  1833.33        500.000        3576.70     
  1830.13        500.000        3577.17     
  1826.92        500.000        3577.63     
  1823.72        500.000        3578.09     
  1820.51        500.000        3578.56     
  1817.31        500.000        3579.02     
  1814.10        500.000        3579.48     
  1810.90        500.000        3579.94     
  1807.69        500.000        3580.41     
  1804.49        500.000        3582.77     
  1801.28        500.000        3595.96     
  1798.08        500.000        3613.43     
  1794.87        500.000        3630.27     
  1791.67        500.000        3645.88     
  1788.46        500.000        3660.98     
  1785.26        500.000        3675.58     
  1782.05        500.000        3689.71     
  1778.85        500.000        3703.39     
  1775.64        500.000        3716.65     
  1772.44        500.000        3729.50     
  1769.23        500.000        3741.96     
  1766.03        500.000        3753.67     
  1762.82        500.000        3765.06     
  1759.62        500.000        3651.50     
  1756.41        500.000        3501.61     
  1753.21        500.000        3440.26     
  1750.00        500.000        3406.63     
  1746.79        500.000        3385.49     
  1743.59        500.000        3371.04     
  1740.38        500.000        3363.13     
  1737.18        500.000        3357.22     
  1733.97        500.000        3352.67     
  1730.77        500.000        3349.08     
  1727.56        500.000        3346.21     
  1724.36        500.000        3343.87     
  1721.15        500.000        3341.96     
  1717.95        500.000        3340.37     
  1714.74        500.000        3340.36     
  1711.54        500.000        3340.40     
  1708.33        500.000        3340.49     
  1705.13        500.000        3340.62     
  1701.92        500.000        3340.79     
  1698.72        500.000        3340.99     
  1695.51        500.000        3341.21     
  1692.31        500.000        3341.46     
  1689.10        500.000        3342.43     
  1685.90        500.000        3343.36     
  1682.69        500.000        3344.26     
  1679.49        500.000        3345.13     
  1676.28        500.000        3345.97     
  1673.08        500.000        3346.78     
  1669.87        500.000        3347.58     
  1666.67        500.000        3348.35     
  1663.46        500.000        3349.31     
  1660.26        500.000        3350.25     
  1657.05        500.000        3351.16     
  1653.85        500.000        3352.05     
  1650.64        500.000        3352.91     
  1647.44        500.000        3353.76     
  1644.23        500.000        3354.58     
  1641.03        500.000        3355.39     
  1637.82        500.000        3356.44     
  1634.62        500.000        3357.46     
  1631.41        500.000        3358.46     
  1628.21        500.000        3359.44     
  1625.00        500.000        3354.57     
  1621.79        500.000        3349.92     
  1618.59        500.000        3346.05     
  1615.38        500.000        3342.54     
  1612.18        500.000        3340.03     
  1608.97        500.000        3337.71     
  1605.77        500.000        3335.56     
  1602.56        500.000        3333.57     
  1599.36        500.000        3331.72     
  1596.15        500.000        3330.00     
  1592.95        500.000        3328.41     
  1589.74        500.000        3326.92     
  1586.54        500.000        3325.97     
  1583.33        500.000        3325.09     
  1580.13        500.000        3324.25     
  1576.92        500.000        3323.47     
  1573.72        500.000        3322.74     
  1570.51        500.000        3322.06     
  1567.31        500.000        3321.41     
  1564.10        500.000        3320.81     
  1560.90        500.000        3320.35     
  1557.69        500.000        3319.93     
  1554.49        500.000        3319.53     
  1551.28        500.000        3319.17     
  1548.08        500.000        3318.83     
  1544.87        500.000        3318.51     
  1541.67        500.000        3318.22     
  1538.46        500.000        3317.95     
  1535.26        500.000        3317.78     
  1532.05        500.000        3317.51     
  1528.85        500.000        3317.04     
  1525.64        500.000        3316.61     
  1522.44        500.000        3316.55     
  1519.23        500.000        3316.66     
  1516.03        500.000        3317.11     
  1512.82        500.000        3316.87     
  1509.62        500.000        3317.33     
  1506.41        500.000        3317.78     
  1503.21        500.000        3318.23     
  1500.00        500.000        3318.68     
  1496.79        500.000        3319.13     
  1493.59        500.000        3319.58     
  1490.38        500.000        3320.03     
  1487.18        500.000        3319.01     
  1483.97        500.000        3319.46     
  1480.77        500.000        3319.91     
  1477.56        500.000        3320.36     
  1474.36        500.000        3320.81     
  1471.15        500.000        3321.25     
  1467.95        500.000        3321.70     
  1464.74        500.000        3322.15     
  1461.54        500.000        3322.08     
  1458.33        500.000        3322.53     
  1455.13        500.000        3322.97     
  1451.92        500.000        3323.42     
  1448.72        500.000        3323.86     
  1445.51        500.000        3324.31     
  1442.31        500.000        3324.75     
  1439.10        500.000        3325.20     
  1435.90        500.000        3325.33     
  1432.69        500.000        3325.77     
  1429.49        500.000        3326.22     
  1426.28        500.000        3326.66     
  1423.08        500.000        3327.10     
  1419.87        500.000        3327.55     
  1416.67        500.000        3327.99     
  1413.46        500.000        3328.43     
  1410.26        500.000        3328.60     
  1407.05        500.000        3329.04     
  1403.85        500.000        3329.48     
  1400.64        500.000        3329.92     
  1397.44        500.000        3330.36     
  1394.23        500.000        3330.80     
  1391.03        500.000        3331.24     
  1387.82        500.000        3331.68     
  1384.62        500.000        3331.82     
  1381.41        500.000        3332.25     
  1378.21        500.000        3332.69     
  1375.00        500.000        3333.13     
  1371.79        500.000        3333.57     
  1368.59        500.000        3334.00     
  1365.38        500.000        3334.44     
  1362.18        500.000        3334.88     
  1358.97        500.000        3334.95     
  1355.77        500.000        3335.39     
  1352.56        500.000        3335.82     
  1349.36        500.000        3336.26     
  1346.15        500.000        3336.69     
  1342.95        500.000        3337.13     
  1339.74        500.000        3337.56     
  1336.54        500.000        3338.00     
  1333.33        500.000        3338.02     
  1330.13        500.000        3338.45     
  1326.92        500.000        3338.77     
  1323.72        500.000        3339.15     
  1320.51        500.000        3339.57     
  1317.31        500.000        3340.00     
  1314.10        500.000        3340.43     
  1310.90        500.000        3340.86     
  1307.69        500.000        3341.43     
  1304.49        500.000        3341.86     
  1301.28        500.000        3342.29     
  1298.08        500.000        3342.72     
  1294.87        500.000        3343.15     
  1291.67        500.000        3343.58     
  1288.46        500.000        3344.01     
  1285.26        500.000        3344.44     
  1282.05        500.000        3345.14     
  1278.85        500.000        3345.57     
  1275.64        500.000        3345.99     
  1272.44        500.000        3346.42     
  1269.23        500.000        3346.98     
  1266.03        500.000        3347.41     
  1262.82        500.000        3347.91     
  1259.62        500.000        3348.35     
  1256.41        500.000        3348.72     
  1253.21        500.000        3349.14     
  1250.00        500.000        3349.57     
  1246.79        500.000        3349.99     
  1243.59        500.000        3350.42     
  1240.38        500.000        3350.84     
  1237.18        500.000        3351.26     
  1233.97        500.000        3351.69     
  1230.77        500.000        3351.50     
  1227.56        500.000        3351.92     
  1224.36        500.000        3352.35     
  1221.15        500.000        3352.77     
  1217.95        500.000        3353.19     
  1214.74        500.000        3353.61     
  1211.54        500.000        3354.03     
  1208.33        500.000        3354.45     
  1205.13        500.000        3354.32     
  1201.92        500.000        3354.74     
  1198.72        500.000        3355.16     
  1195.51        500.000        3355.58     
  1192.31        500.000        3356.00     
  1189.10        500.000        3356.42     
  1185.90        500.000        3356.84     
  1182.69        500.000        3357.25     
  1179.49        500.000        3357.16     
  1176.28        500.000        3357.58     
  1173.08        500.000        3358.00     
  1169.87        500.000        3358.41     
  1166.67        500.000        3358.83     
  1163.46        500.000        3359.25     
  1160.26        500.000        3359.66     
  1157.05        500.000        3360.08     
  1153.85        500.000        3360.03     
  1150.64        500.000        3360.45     
  1147.44        500.000        3360.86     
  1144.23        500.000        3361.28     
  1141.03        500.000        3361.69     
  1137.82        500.000        3362.11     
  1134.62        500.000        3362.52     
  1131.41        500.000        3362.93     
  1128.21        500.000        3362.93     
  1125.00        500.000        3363.34     
  1121.79        500.000        3363.76     
  1118.59        500.000        3364.17     
  1115.38        500.000        3364.58     
  1112.18        500.000        3364.99     
  1108.97        500.000        3365.40     
  1105.77        500.000        3365.81     
  1102.56        500.000        3365.84     
  1099.36        500.000        3366.25     
  1096.15        500.000        3366.66     
  1092.95        500.000        3367.06     
  1089.74        500.000        3367.47     
  1086.54        500.000        3367.88     
  1083.33        500.000        3368.29     
  1080.13        500.000        3368.70     
  1076.92        500.000        3368.79     
  1073.72        500.000        3369.15     
  1070.51        500.000        3369.52     
  1067.31        500.000        3369.92     
  1064.10        500.000        3370.22     
  1060.90        500.000        3370.63     
  1057.69        500.000        3371.03     
  1054.49        500.000        3371.44     
  1051.28        500.000        3371.61     
  1048.08        500.000        3372.02     
  1044.87        500.000        3372.42     
  1041.67        500.000        3372.83     
  1038.46        500.000        3373.23     
  1035.26        500.000        3373.64     
  1032.05        500.000        3374.04     
  1028.85        500.000        3374.44     
  1025.64        500.000        3374.40     
  1022.44        500.000        3374.80     
  1019.23        500.000        3375.21     
  1016.03        500.000        3375.61     
  1012.82        500.000        3376.01     
  1009.62        500.000        3376.41     
  1006.41        500.000        3376.81     
  1003.21        500.000        3377.21     
  1000.00        500.000        3377.19     
