|6.6.6
Archiving\03_Data\Deqfrac/QFM_m3.5/YM20/YM20_6.tab                      
           1
T(K)    
  0.000000000000000E+000
  0.000000000000000E+000
           0
           3
T(K)           P(bar)         rho,kg/m3     
  1618.59        2500.00        3221.74     
  1617.04        2500.00        3225.77     
  1615.49        2500.00        3231.51     
  1613.94        2500.00        3231.63     
  1612.39        2500.00        3232.58     
  1610.84        2500.00        3232.83     
  1609.29        2500.00        3233.69     
  1607.74        2500.00        3233.89     
  1606.19        2500.00        3234.17     
  1604.64        2500.00        3234.57     
  1603.09        2500.00        3235.13     
  1601.54        2500.00        3235.41     
  1599.99        2500.00        3236.04     
  1598.44        2500.00        3236.93     
  1596.89        2500.00        3237.04     
  1595.33        2500.00        3237.30     
  1593.78        2500.00        3237.90     
  1592.23        2500.00        3238.55     
  1590.68        2500.00        3239.07     
  1589.13        2500.00        3239.79     
  1587.58        2500.00        3239.53     
  1586.03        2500.00        3240.52     
  1584.48        2500.00        3241.06     
  1582.93        2500.00        3241.39     
  1581.38        2500.00        3241.73     
  1579.83        2500.00        3242.09     
  1578.28        2500.00        3243.00     
  1576.73        2500.00        3242.90     
  1575.18        2500.00        3245.18     
  1573.63        2500.00        3244.33     
  1572.08        2500.00        3243.18     
  1570.53        2500.00        3244.34     
  1568.98        2500.00        3245.35     
  1567.43        2500.00        3245.69     
  1565.88        2500.00        3246.40     
  1564.33        2500.00        3332.25     
  1562.78        2500.00        3245.39     
  1561.23        2500.00        3247.92     
  1559.68        2500.00        3247.98     
  1558.13        2500.00        3247.90     
  1556.58        2500.00        3248.58     
  1555.03        2500.00        3249.24     
  1553.48        2500.00        3331.09     
  1551.92        2500.00        3249.12     
  1550.37        2500.00        3250.33     
  1548.82        2500.00        3250.90     
  1547.27        2500.00        3251.17     
  1545.72        2500.00        3251.61     
  1544.17        2500.00        3252.18     
  1542.62        2500.00        3252.00     
  1541.07        2500.00        3252.94     
  1539.52        2500.00        3254.57     
  1537.97        2500.00        3253.86     
  1536.42        2500.00        3254.38     
  1534.87        2500.00        3254.29     
  1533.32        2500.00        3255.27     
  1531.77        2500.00        3255.71     
  1530.22        2500.00        3257.49     
  1528.67        2500.00        3256.01     
  1527.12        2500.00        3259.32     
  1525.57        2500.00        3254.63     
  1524.02        2500.00        3256.95     
  1522.47        2500.00        3258.61     
  1520.92        2500.00        3240.90     
  1519.37        2500.00        3240.50     
  1517.82        2500.00        3240.94     
  1516.27        2500.00        3241.51     
  1514.72        2500.00        3242.57     
  1513.17        2500.00        3242.89     
  1511.62        2500.00        3244.52     
  1510.07        2500.00        3245.20     
  1508.52        2500.00        3245.84     
  1506.96        2500.00        3246.91     
  1505.41        2500.00        3238.81     
  1503.86        2500.00        3243.24     
  1502.31        2500.00        3238.68     
  1500.76        2500.00        3239.78     
  1499.21        2500.00        3240.80     
  1497.66        2500.00        3241.91     
  1496.11        2500.00        3243.25     
  1494.56        2500.00        3244.22     
  1493.01        2500.00        3245.63     
  1491.46        2500.00        3246.55     
  1489.91        2500.00        3248.03     
  1488.36        2500.00        3249.09     
  1486.81        2500.00        3250.27     
  1485.26        2500.00        3251.56     
  1483.71        2500.00        3252.87     
  1482.16        2500.00        3253.82     
  1480.61        2500.00        3255.42     
  1479.06        2500.00        3256.36     
  1477.51        2500.00        3257.57     
  1475.96        2500.00        3258.74     
  1474.41        2500.00        3260.19     
  1472.86        2500.00        3261.24     
  1471.31        2500.00        3262.99     
  1469.76        2500.00        3263.92     
  1468.21        2500.00        3265.47     
  1466.66        2500.00        3266.92     
  1465.11        2500.00        3269.00     
  1463.55        2500.00        3093.70     
  1462.00        2500.00        3094.97     
  1460.45        2500.00        3096.26     
  1458.90        2500.00        3098.88     
  1457.35        2500.00        3099.68     
  1455.80        2500.00        3102.64     
  1454.25        2500.00        3104.48     
  1452.70        2500.00        3106.33     
  1451.15        2500.00        3108.29     
  1449.60        2500.00        3110.14     
  1448.05        2500.00        3112.09     
  1446.50        2500.00        3114.06     
  1444.95        2500.00        3115.96     
  1443.40        2500.00        3117.88     
  1441.85        2500.00        3119.84     
  1440.30        2500.00        3121.76     
  1438.75        2500.00        3123.70     
  1437.20        2500.00        3125.62     
  1435.65        2500.00        3127.59     
  1434.10        2500.00        3129.39     
  1432.55        2500.00        3131.49     
  1431.00        2500.00        3133.53     
  1429.45        2500.00        3135.36     
  1427.90        2500.00        3137.57     
  1426.35        2500.00        3139.39     
  1424.80        2500.00        3142.11     
  1423.25        2500.00        3143.67     
  1421.70        2500.00        3145.43     
  1420.15        2500.00        3147.14     
  1418.59        2500.00        3149.34     
  1417.04        2500.00        3151.39     
  1415.49        2500.00        3153.41     
  1413.94        2500.00        3155.11     
  1412.39        2500.00        3157.38     
  1410.84        2500.00        3159.20     
  1409.29        2500.00        3161.48     
  1407.74        2500.00        3163.52     
  1406.19        2500.00        3165.29     
  1404.64        2500.00        3167.17     
  1403.09        2500.00        3169.55     
  1401.54        2500.00        3171.61     
  1399.99        2500.00        3173.48     
  1398.44        2500.00        3175.50     
  1396.89        2500.00        3177.77     
  1395.34        2500.00        3179.68     
  1393.79        2500.00        3181.86     
  1392.24        2500.00        3183.52     
  1390.69        2500.00        3185.95     
  1389.14        2500.00        3187.75     
  1387.59        2500.00        3189.94     
  1386.04        2500.00        3191.58     
  1384.49        2500.00        3194.00     
  1382.94        2500.00        3195.92     
  1381.39        2500.00        3197.97     
  1379.84        2500.00        3191.40     
  1378.29        2500.00        3232.52     
  1376.74        2500.00        3206.74     
  1375.18        2500.00        3206.42     
  1373.63        2500.00        3207.87     
  1372.08        2500.00        3209.80     
  1370.53        2500.00        3211.78     
  1368.98        2500.00        3213.50     
  1367.43        2500.00        3215.47     
  1365.88        2500.00        3217.18     
  1364.33        2500.00        3219.35     
  1362.78        2500.00        3220.83     
  1361.23        2500.00        3223.13     
  1359.68        2500.00        3224.77     
  1358.13        2500.00        3226.56     
  1356.58        2500.00        3226.03     
  1355.03        2500.00        3233.25     
  1353.48        2500.00        3219.72     
  1351.93        2500.00        3237.11     
  1350.38        2500.00        3237.29     
  1348.83        2500.00        3239.04     
  1347.28        2500.00        3240.84     
  1345.73        2500.00        3241.18     
  1344.18        2500.00        3243.54     
  1342.63        2500.00        3244.11     
  1341.08        2500.00        3245.00     
  1339.53        2500.00        3245.69     
  1337.98        2500.00        3247.04     
  1336.43        2500.00        3248.33     
  1334.88        2500.00        3249.74     
  1333.33        2500.00        3251.09     
  1331.78        2500.00        3266.19     
  1330.22        2500.00        3238.27     
  1328.67        2500.00        3254.14     
  1327.12        2500.00        3255.15     
  1325.57        2500.00        3256.75     
  1324.02        2500.00        3258.52     
  1322.47        2500.00        3256.59     
  1320.92        2500.00        3259.12     
  1319.37        2500.00        3259.35     
  1317.82        2500.00        3260.26     
  1316.27        2500.00        3261.04     
  1314.72        2500.00        3261.50     
  1313.17        2500.00        3261.94     
  1311.62        2500.00        3255.23     
  1310.07        2500.00        3263.92     
  1308.52        2500.00        3264.20     
  1306.97        2500.00        2822.21     
  1305.42        2500.00        2809.11     
  1303.87        2500.00        2812.80     
  1302.32        2500.00        2816.64     
  1300.77        2500.00        2820.21     
  1299.22        2500.00        2833.69     
  1297.67        2500.00        2843.23     
  1296.12        2500.00        2845.36     
  1294.57        2500.00        2848.26     
  1293.02        2500.00        2849.52     
  1291.47        2500.00        2852.25     
  1289.92        2500.00        2852.53     
  1288.37        2500.00        2798.85     
  1286.81        2500.00        2894.26     
  1285.26        2500.00        2853.41     
  1283.71        2500.00        2858.29     
  1282.16        2500.00        2852.33     
  1280.61        2500.00        2843.93     
  1279.06        2500.00        2836.14     
  1277.51        2500.00        2832.49     
  1275.96        2500.00        2834.00     
  1274.41        2500.00        2838.21     
  1272.86        2500.00        2840.44     
  1271.31        2500.00        2837.91     
  1269.76        2500.00        4206.01     
  1268.21        2500.00        2911.85     
  1266.66        2500.00        2834.73     
  1265.11        2500.00        3171.10     
  1263.56        2500.00        2840.62     
  1262.01        2500.00        3471.28     
  1260.46        2500.00        2875.56     
  1258.91        2500.00        2880.93     
  1257.36        2500.00        2737.36     
  1255.81        2500.00        3053.58     
  1254.26        2500.00        2937.53     
  1252.71        2500.00        2752.19     
  1251.16        2500.00        3020.72     
  1249.61        2500.00        2805.11     
  1248.06        2500.00        2784.98     
  1246.51        2500.00        2776.16     
  1244.96        2500.00        2776.38     
  1243.41        2500.00        2776.59     
  1241.85        2500.00        2776.80     
  1240.30        2500.00        2777.02     
  1238.75        2500.00        2777.23     
  1237.20        2500.00        2777.44     
  1235.65        2500.00        2777.66     
  1234.10        2500.00        2777.87     
  1232.55        2500.00        2778.09     
  1231.00        2500.00        2778.30     
  1229.45        2500.00        2778.52     
  1227.90        2500.00        2778.73     
  1226.35        2500.00        2778.94     
  1224.80        2500.00        2779.16     
  1223.25        2500.00        2779.37     
  1221.70        2500.00        2779.59     
  1220.15        2500.00        2779.80     
  1218.60        2500.00        2780.02     
  1217.05        2500.00        2780.24     
  1215.50        2500.00        2780.45     
  1213.95        2500.00        2780.67     
  1212.40        2500.00        2780.88     
  1210.85        2500.00        2781.10     
  1209.30        2500.00        2781.31     
  1207.75        2500.00        2781.53     
  1206.20        2500.00        2781.75     
  1204.65        2500.00        2781.96     
  1203.10        2500.00        2782.18     
  1201.55        2500.00        2782.40     
  1200.00        2500.00        2782.61     
  1198.44        2500.00        2782.83     
  1196.89        2500.00        2783.05     
  1195.34        2500.00        2783.27     
  1193.79        2500.00        2783.49     
  1192.24        2500.00        2783.70     
  1190.69        2500.00        2783.92     
  1189.14        2500.00        2784.14     
  1187.59        2500.00        2784.36     
  1186.04        2500.00        2784.58     
  1184.49        2500.00        2784.80     
  1182.94        2500.00        2785.02     
  1181.39        2500.00        2785.24     
  1179.84        2500.00        2785.46     
  1178.29        2500.00        2785.68     
  1176.74        2500.00        2785.90     
  1175.19        2500.00        2786.12     
  1173.64        2500.00        2786.34     
  1172.09        2500.00        2786.56     
  1170.54        2500.00        2786.78     
  1168.99        2500.00        2787.01     
  1167.44        2500.00        2787.23     
  1165.89        2500.00        2787.45     
  1164.34        2500.00        2787.67     
  1162.79        2500.00        2787.90     
  1161.24        2500.00        2788.12     
  1159.69        2500.00        2788.35     
  1158.14        2500.00        2788.57     
  1156.59        2500.00        2788.79     
  1155.04        2500.00        2789.02     
  1153.48        2500.00        2789.24     
  1151.93        2500.00        2798.67     
  1150.38        2500.00        2798.92     
  1148.83        2500.00        2799.16     
  1147.28        2500.00        2799.40     
  1145.73        2500.00        2799.64     
  1144.18        2500.00        2799.89     
  1142.63        2500.00        2800.13     
  1141.08        2500.00        2800.38     
  1139.53        2500.00        2800.62     
  1137.98        2500.00        2800.87     
  1136.43        2500.00        2801.11     
  1134.88        2500.00        2801.36     
  1133.33        2500.00        2801.61     
  1131.78        2500.00        2801.86     
  1130.23        2500.00        2802.10     
  1128.68        2500.00        2802.35     
  1127.13        2500.00        2802.60     
  1125.58        2500.00        2802.85     
  1124.03        2500.00        2803.10     
  1122.48        2500.00        2803.35     
  1120.93        2500.00        2803.61     
  1119.38        2500.00        2805.17     
  1117.83        2500.00        2805.46     
  1116.28        2500.00        2805.04     
  1114.73        2500.00        2806.01     
  1113.18        2500.00        2806.28     
  1111.63        2500.00        2805.13     
  1110.07        2500.00        2806.82     
  1108.52        2500.00        2807.09     
  1106.97        2500.00        2807.37     
  1105.42        2500.00        2807.60     
  1103.87        2500.00        2807.81     
  1102.32        2500.00        2808.02     
  1100.77        2500.00        2808.24     
  1099.22        2500.00        2808.44     
  1097.67        2500.00        2808.66     
  1096.12        2500.00        2808.88     
  1094.57        2500.00        2809.11     
  1093.02        2500.00        2809.31     
  1091.47        2500.00        2809.53     
  1089.92        2500.00        2809.74     
  1088.37        2500.00        2809.97     
  1086.82        2500.00        2810.19     
  1085.27        2500.00        2810.47     
  1083.72        2500.00        2810.03     
  1082.17        2500.00        2810.21     
  1080.62        2500.00        2811.07     
  1079.07        2500.00        2811.28     
  1077.52        2500.00        2812.09     
  1075.97        2500.00        2812.63     
  1074.42        2500.00        2812.86     
  1072.87        2500.00        2813.08     
  1071.32        2500.00        2813.26     
  1069.77        2500.00        2813.51     
  1068.22        2500.00        2813.58     
  1066.67        2500.00        2813.88     
  1065.11        2500.00        2814.02     
  1063.56        2500.00        2814.32     
  1062.01        2500.00        2814.63     
  1060.46        2500.00        2813.98     
  1058.91        2500.00        2814.19     
  1057.36        2500.00        2814.40     
  1055.81        2500.00        2814.61     
  1054.26        2500.00        2814.82     
  1052.71        2500.00        2815.03     
  1051.16        2500.00        2815.24     
  1049.61        2500.00        2815.45     
  1048.06        2500.00        2815.67     
  1046.51        2500.00        2815.88     
  1044.96        2500.00        2816.32     
  1043.41        2500.00        2816.51     
  1041.86        2500.00        2816.73     
  1040.31        2500.00        2816.94     
  1038.76        2500.00        2817.16     
  1037.21        2500.00        2817.38     
  1035.66        2500.00        2817.59     
  1034.11        2500.00        2817.81     
  1032.56        2500.00        2818.56     
  1031.01        2500.00        2818.25     
  1029.46        2500.00        2818.48     
  1027.91        2500.00        2818.69     
  1026.36        2500.00        2818.92     
  1024.81        2500.00        2819.13     
  1023.26        2500.00        2819.35     
  1021.70        2500.00        2819.58     
  1020.15        2500.00        2819.80     
  1018.60        2500.00        2820.04     
  1017.05        2500.00        2820.26     
  1015.50        2500.00        2820.53     
  1013.95        2500.00        2820.76     
  1012.40        2500.00        2820.99     
  1010.85        2500.00        2821.21     
  1009.30        2500.00        2821.44     
  1007.75        2500.00        2821.67     
  1006.20        2500.00        2821.90     
  1004.65        2500.00        2822.14     
  1003.10        2500.00        2822.36     
  1001.55        2500.00        2822.60     
  1000.00        2500.00        2822.83     
