|6.6.6
Archiving\03_Data\eqfracLP/QFM/GRV/GRV_6.tab                              
           1
T(K)    
  0.000000000000000E+000
  0.000000000000000E+000
           0
           3
T(K)           P(bar)         rho,kg/m3     
  1551.28        500.000        3260.06     
  1549.90        500.000        3246.87     
  1548.52        500.000        3239.78     
  1547.14        500.000        3241.13     
  1545.75        500.000        3242.91     
  1544.37        500.000        3241.73     
  1542.99        500.000        3242.46     
  1541.61        500.000        3243.01     
  1540.23        500.000        3243.42     
  1538.85        500.000        3244.25     
  1537.46        500.000        3247.98     
  1536.08        500.000        3245.66     
  1534.70        500.000        3246.08     
  1533.32        500.000        3246.78     
  1531.94        500.000        3247.40     
  1530.56        500.000        3247.56     
  1529.17        500.000        3248.46     
  1527.79        500.000        3249.36     
  1526.41        500.000        3250.55     
  1525.03        500.000        3250.55     
  1523.65        500.000        3250.62     
  1522.27        500.000        3250.97     
  1520.88        500.000        3242.39     
  1519.50        500.000        3234.61     
  1518.12        500.000        3235.80     
  1516.74        500.000        3237.27     
  1515.36        500.000        3238.37     
  1513.98        500.000        3239.50     
  1512.59        500.000        3240.87     
  1511.21        500.000        3242.27     
  1509.83        500.000        3243.50     
  1508.45        500.000        3244.83     
  1507.07        500.000        3246.15     
  1505.69        500.000        3247.72     
  1504.30        500.000        3248.77     
  1502.92        500.000        3250.10     
  1501.54        500.000        3251.34     
  1500.16        500.000        3252.70     
  1498.78        500.000        3253.70     
  1497.40        500.000        3255.23     
  1496.01        500.000        3256.43     
  1494.63        500.000        3257.77     
  1493.25        500.000        3259.09     
  1491.87        500.000        3260.51     
  1490.49        500.000        3261.43     
  1489.11        500.000        3262.70     
  1487.72        500.000        3264.15     
  1486.34        500.000        3265.30     
  1484.96        500.000        3266.84     
  1483.58        500.000        3267.82     
  1482.20        500.000        3269.25     
  1480.82        500.000        3270.25     
  1479.43        500.000        3271.91     
  1478.05        500.000        3272.98     
  1476.67        500.000        3274.28     
  1475.29        500.000        3275.32     
  1473.91        500.000        3276.87     
  1472.53        500.000        3278.30     
  1471.14        500.000        3279.28     
  1469.76        500.000        3280.36     
  1468.38        500.000        3281.86     
  1467.00        500.000        3283.20     
  1465.62        500.000        3284.33     
  1464.24        500.000        3285.67     
  1462.85        500.000        3286.91     
  1461.47        500.000        3288.34     
  1460.09        500.000        3289.36     
  1458.71        500.000        3290.69     
  1457.33        500.000        3292.11     
  1455.95        500.000        3293.34     
  1454.56        500.000        3294.88     
  1453.18        500.000        3295.99     
  1451.80        500.000        3297.16     
  1450.42        500.000        3298.56     
  1449.04        500.000        3299.70     
  1447.66        500.000        3301.20     
  1446.27        500.000        3302.42     
  1444.89        500.000        3303.67     
  1443.51        500.000        3304.85     
  1442.13        500.000        3306.13     
  1440.75        500.000        3309.01     
  1439.37        500.000        3308.71     
  1437.98        500.000        3309.34     
  1436.60        500.000        3310.17     
  1435.22        500.000        3311.96     
  1433.84        500.000        3312.81     
  1432.46        500.000        3314.05     
  1431.08        500.000        3315.76     
  1429.69        500.000        3317.78     
  1428.31        500.000        3324.50     
  1426.93        500.000        3320.24     
  1425.55        500.000        3321.70     
  1424.17        500.000        3323.22     
  1422.79        500.000        3324.73     
  1421.40        500.000        3326.29     
  1420.02        500.000        3327.79     
  1418.64        500.000        3329.32     
  1417.26        500.000        3330.85     
  1415.88        500.000        3332.35     
  1414.50        500.000        3333.85     
  1413.11        500.000        3335.30     
  1411.73        500.000        3336.93     
  1410.35        500.000        3338.63     
  1408.97        500.000        3340.14     
  1407.59        500.000        3341.27     
  1406.21        500.000        3343.35     
  1404.82        500.000        3344.64     
  1403.44        500.000        3346.40     
  1402.06        500.000        3347.88     
  1400.68        500.000        3349.48     
  1399.30        500.000        3350.68     
  1397.92        500.000        3352.78     
  1396.53        500.000        3354.06     
  1395.15        500.000        3355.93     
  1393.77        500.000        3357.40     
  1392.39        500.000        3359.01     
  1391.01        500.000        3360.64     
  1389.63        500.000        3362.69     
  1388.24        500.000        3363.96     
  1386.86        500.000        3365.48     
  1385.48        500.000        3367.44     
  1384.10        500.000        3368.97     
  1382.72        500.000        3397.36     
  1381.34        500.000        3380.70     
  1379.95        500.000        3373.91     
  1378.57        500.000        3375.71     
  1377.19        500.000        3212.35     
  1375.81        500.000        3190.29     
  1374.43        500.000        3205.44     
  1373.05        500.000        3218.13     
  1371.66        500.000        3221.00     
  1370.28        500.000        3223.64     
  1368.90        500.000        3226.05     
  1367.52        500.000        3229.76     
  1366.14        500.000        3232.01     
  1364.76        500.000        3235.03     
  1363.38        500.000        3237.95     
  1361.99        500.000        3240.53     
  1360.61        500.000        3243.23     
  1359.23        500.000        3247.70     
  1357.85        500.000        3236.61     
  1356.47        500.000        3270.18     
  1355.09        500.000        3273.98     
  1353.70        500.000        3275.34     
  1352.32        500.000        3282.15     
  1350.94        500.000        3292.97     
  1349.56        500.000        3305.94     
  1348.18        500.000        3324.04     
  1346.80        500.000        3341.43     
  1345.41        500.000        3357.94     
  1344.03        500.000        3371.08     
  1342.65        500.000        3378.98     
  1341.27        500.000        3385.32     
  1339.89        500.000        3389.25     
  1338.51        500.000        3392.11     
  1337.12        500.000        3394.72     
  1335.74        500.000        3396.12     
  1334.36        500.000        3398.07     
  1332.98        500.000        3399.46     
  1331.60        500.000        3400.71     
  1330.22        500.000        3401.68     
  1328.83        500.000        3402.71     
  1327.45        500.000        3403.69     
  1326.07        500.000        3404.69     
  1324.69        500.000        3405.33     
  1323.31        500.000        3406.30     
  1321.93        500.000        3406.86     
  1320.54        500.000        3407.74     
  1319.16        500.000        3408.57     
  1317.78        500.000        3408.55     
  1316.40        500.000        3410.18     
  1315.02        500.000        3410.24     
  1313.64        500.000        3410.97     
  1312.25        500.000        3411.36     
  1310.87        500.000        3412.01     
  1309.49        500.000        3412.59     
  1308.11        500.000        3412.96     
  1306.73        500.000        3413.33     
  1305.35        500.000        3413.97     
  1303.96        500.000        3414.23     
  1302.58        500.000        3414.55     
  1301.20        500.000        3414.94     
  1299.82        500.000        3415.34     
  1298.44        500.000        3415.62     
  1297.06        500.000        3415.92     
  1295.67        500.000        3416.18     
  1294.29        500.000        3416.37     
  1292.91        500.000        3416.61     
  1291.53        500.000        3416.71     
  1290.15        500.000        3417.08     
  1288.77        500.000        3417.11     
  1287.38        500.000        3417.35     
  1286.00        500.000        3417.31     
  1284.62        500.000        3417.46     
  1283.24        500.000        3417.49     
  1281.86        500.000        3417.67     
  1280.48        500.000        3417.30     
  1279.09        500.000        3417.62     
  1277.71        500.000        3417.58     
  1276.33        500.000        3417.52     
  1274.95        500.000        3417.39     
  1273.57        500.000        3417.18     
  1272.19        500.000        3417.25     
  1270.80        500.000        3416.81     
  1269.42        500.000        3416.95     
  1268.04        500.000        3416.67     
  1266.66        500.000        3416.50     
  1265.28        500.000        3416.08     
  1263.90        500.000        3415.73     
  1262.51        500.000        2884.57     
  1261.13        500.000        2868.40     
  1259.75        500.000        2869.52     
  1258.37        500.000        2870.61     
  1256.99        500.000        2871.62     
  1255.61        500.000        2872.50     
  1254.22        500.000        2873.24     
  1252.84        500.000        2873.88     
  1251.46        500.000        2874.37     
  1250.08        500.000        2874.86     
  1248.70        500.000        2875.03     
  1247.32        500.000        2875.35     
  1245.93        500.000        2874.58     
  1244.55        500.000        2874.52     
  1243.17        500.000        2873.95     
  1241.79        500.000        2875.77     
  1240.41        500.000        2874.28     
  1239.03        500.000        2851.11     
  1237.64        500.000        3546.56     
  1236.26        500.000        2858.91     
  1234.88        500.000        3050.99     
  1233.50        500.000        2830.50     
  1232.12        500.000        2867.52     
  1230.74        500.000        3321.46     
  1229.35        500.000        2879.18     
  1227.97        500.000        2861.74     
  1226.59        500.000        2776.78     
  1225.21        500.000        2856.72     
  1223.83        500.000        2864.22     
  1222.45        500.000        2864.45     
  1221.06        500.000        2843.96     
  1219.68        500.000        2857.40     
  1218.30        500.000        2855.74     
  1216.92        500.000        2680.17     
  1215.54        500.000        2679.59     
  1214.16        500.000        2678.94     
  1212.77        500.000        2675.03     
  1211.39        500.000        2675.72     
  1210.01        500.000        2649.79     
  1208.63        500.000        2673.82     
  1207.25        500.000        2670.06     
  1205.87        500.000        2805.60     
  1204.48        500.000        2650.80     
  1203.10        500.000        2672.13     
  1201.72        500.000        2667.34     
  1200.34        500.000        2664.56     
  1198.96        500.000        2423.74     
  1197.58        500.000        2666.40     
  1196.19        500.000        2667.46     
  1194.81        500.000        2661.87     
  1193.43        500.000        2657.40     
  1192.05        500.000        2653.86     
  1190.67        500.000        2411.42     
  1189.29        500.000        2411.51     
  1187.90        500.000        2411.61     
  1186.52        500.000        2627.87     
  1185.14        500.000        2621.83     
  1183.76        500.000        2621.97     
  1182.38        500.000        2621.98     
  1181.00        500.000        2622.05     
  1179.62        500.000        2622.11     
  1178.23        500.000        2622.18     
  1176.85        500.000        2622.24     
  1175.47        500.000        2622.30     
  1174.09        500.000        2622.47     
  1172.71        500.000        2622.42     
  1171.33        500.000        2622.48     
  1169.94        500.000        2622.54     
  1168.56        500.000        2622.64     
  1167.18        500.000        2622.53     
  1165.80        500.000        2622.85     
  1164.42        500.000        2622.92     
  1163.04        500.000        2622.98     
  1161.65        500.000        2623.05     
  1160.27        500.000        2623.12     
  1158.89        500.000        2623.18     
  1157.51        500.000        2623.25     
  1156.13        500.000        2623.31     
  1154.75        500.000        2623.38     
  1153.36        500.000        2623.44     
  1151.98        500.000        2623.45     
  1150.60        500.000        2623.51     
  1149.22        500.000        2623.58     
  1147.84        500.000        2623.64     
  1146.46        500.000        2623.70     
  1145.07        500.000        2623.77     
  1143.69        500.000        2623.83     
  1142.31        500.000        2623.89     
  1140.93        500.000        2623.96     
  1139.55        500.000        2624.02     
  1138.17        500.000        2624.09     
  1136.78        500.000        2624.19     
  1135.40        500.000        2624.26     
  1134.02        500.000        2624.28     
  1132.64        500.000        2624.33     
  1131.26        500.000        2624.40     
  1129.88        500.000        2624.52     
  1128.49        500.000        2624.57     
  1127.11        500.000        2624.65     
  1125.73        500.000        2624.71     
  1124.35        500.000        2624.77     
  1122.97        500.000        2624.83     
  1121.59        500.000        2624.90     
  1120.20        500.000        2624.95     
  1118.82        500.000        2625.03     
  1117.44        500.000        2625.04     
  1116.06        500.000        2625.11     
  1114.68        500.000        2625.16     
  1113.30        500.000        2625.22     
  1111.91        500.000        2625.28     
  1110.53        500.000        2625.34     
  1109.15        500.000        2625.41     
  1107.77        500.000        2625.52     
  1106.39        500.000        2625.52     
  1105.01        500.000        2625.64     
  1103.62        500.000        2625.70     
  1102.24        500.000        2625.76     
  1100.86        500.000        2625.82     
  1099.48        500.000        2625.88     
  1098.10        500.000        2625.94     
  1096.72        500.000        2626.00     
  1095.33        500.000        2626.06     
  1093.95        500.000        2626.12     
  1092.57        500.000        2626.17     
  1091.19        500.000        2626.24     
  1089.81        500.000        2626.30     
  1088.43        500.000        2626.36     
  1087.04        500.000        2626.42     
  1085.66        500.000        2626.48     
  1084.28        500.000        2626.54     
  1082.90        500.000        2626.59     
  1081.52        500.000        2626.66     
  1080.14        500.000        2626.67     
  1078.75        500.000        2626.77     
  1077.37        500.000        2626.79     
  1075.99        500.000        2626.89     
  1074.61        500.000        2626.95     
  1073.23        500.000        2626.91     
  1071.85        500.000        2627.02     
  1070.46        500.000        2627.08     
  1069.08        500.000        2627.13     
  1067.70        500.000        2627.19     
  1066.32        500.000        2627.22     
  1064.94        500.000        2627.27     
  1063.56        500.000        2627.32     
  1062.17        500.000        2627.47     
  1060.79        500.000        2627.43     
  1059.41        500.000        2627.58     
  1058.03        500.000        2627.53     
  1056.65        500.000        2627.59     
  1055.27        500.000        2627.75     
  1053.88        500.000        2627.72     
  1052.50        500.000        2627.78     
  1051.12        500.000        2627.96     
  1049.74        500.000        2627.95     
  1048.36        500.000        2628.04     
  1046.98        500.000        2628.10     
  1045.59        500.000        2628.16     
  1044.21        500.000        2628.21     
  1042.83        500.000        2628.27     
  1041.45        500.000        2628.32     
  1040.07        500.000        2628.38     
  1038.69        500.000        2628.43     
  1037.30        500.000        2628.49     
  1035.92        500.000        2628.55     
  1034.54        500.000        2628.59     
  1033.16        500.000        2628.64     
  1031.78        500.000        2628.68     
  1030.40        500.000        2628.77     
  1029.01        500.000        2628.82     
  1027.63        500.000        2628.88     
  1026.25        500.000        2628.93     
  1024.87        500.000        2628.99     
  1023.49        500.000        2629.04     
  1022.11        500.000        2629.24     
  1020.72        500.000        2629.15     
  1019.34        500.000        2629.20     
  1017.96        500.000        2629.23     
  1016.58        500.000        2629.33     
  1015.20        500.000        2629.37     
  1013.82        500.000        2629.43     
  1012.43        500.000        2629.48     
  1011.05        500.000        2629.53     
  1009.67        500.000        2629.51     
  1008.29        500.000        2629.65     
  1006.91        500.000        2629.69     
  1005.53        500.000        2629.74     
  1004.14        500.000        2629.81     
  1002.76        500.000        2629.84     
  1001.38        500.000        2629.89     
  1000.00        500.000        2629.82     
