|6.6.6
Archiving\03_Data\fracLP/QFM_m1.25/LAR/LAR_6.tab                          
           1
T(K)    
  0.000000000000000E+000
  0.000000000000000E+000
           0
           3
T(K)           P(bar)         rho,kg/m3     
  2000.00        500.000        3552.33     
  1997.49        500.000        3552.70     
  1994.99        500.000        3553.07     
  1992.48        500.000        3553.44     
  1989.97        500.000        3553.81     
  1987.47        500.000        3554.18     
  1984.96        500.000        3554.55     
  1982.46        500.000        3554.92     
  1979.95        500.000        3555.29     
  1977.44        500.000        3555.66     
  1974.94        500.000        3556.03     
  1972.43        500.000        3556.40     
  1969.92        500.000        3556.77     
  1967.42        500.000        3557.14     
  1964.91        500.000        3557.50     
  1962.41        500.000        3557.87     
  1959.90        500.000        3558.24     
  1957.39        500.000        3558.61     
  1954.89        500.000        3558.98     
  1952.38        500.000        3559.35     
  1949.87        500.000        3559.72     
  1947.37        500.000        3560.08     
  1944.86        500.000        3560.45     
  1942.36        500.000        3560.82     
  1939.85        500.000        3561.19     
  1937.34        500.000        3561.56     
  1934.84        500.000        3561.92     
  1932.33        500.000        3562.29     
  1929.82        500.000        3562.66     
  1927.32        500.000        3563.03     
  1924.81        500.000        3563.39     
  1922.31        500.000        3563.76     
  1919.80        500.000        3564.13     
  1917.29        500.000        3564.49     
  1914.79        500.000        3564.86     
  1912.28        500.000        3565.23     
  1909.77        500.000        3565.59     
  1907.27        500.000        3565.96     
  1904.76        500.000        3566.32     
  1902.26        500.000        3566.69     
  1899.75        500.000        3567.06     
  1897.24        500.000        3567.42     
  1894.74        500.000        3567.79     
  1892.23        500.000        3568.15     
  1889.72        500.000        3568.52     
  1887.22        500.000        3568.88     
  1884.71        500.000        3569.25     
  1882.21        500.000        3569.61     
  1879.70        500.000        3569.98     
  1877.19        500.000        3570.34     
  1874.69        500.000        3570.71     
  1872.18        500.000        3571.07     
  1869.67        500.000        3571.44     
  1867.17        500.000        3571.80     
  1864.66        500.000        3572.16     
  1862.16        500.000        3572.53     
  1859.65        500.000        3572.89     
  1857.14        500.000        3573.25     
  1854.64        500.000        3573.62     
  1852.13        500.000        3573.98     
  1849.62        500.000        3574.35     
  1847.12        500.000        3574.71     
  1844.61        500.000        3575.07     
  1842.11        500.000        3575.43     
  1839.60        500.000        3575.80     
  1837.09        500.000        3576.16     
  1834.59        500.000        3576.52     
  1832.08        500.000        3576.88     
  1829.57        500.000        3577.25     
  1827.07        500.000        3577.61     
  1824.56        500.000        3577.97     
  1822.06        500.000        3578.33     
  1819.55        500.000        3578.70     
  1817.04        500.000        3579.06     
  1814.54        500.000        3579.42     
  1812.03        500.000        3579.78     
  1809.52        500.000        3580.14     
  1807.02        500.000        3580.50     
  1804.51        500.000        3580.86     
  1802.01        500.000        3581.22     
  1799.50        500.000        3581.59     
  1796.99        500.000        3581.95     
  1794.49        500.000        3582.31     
  1791.98        500.000        3582.67     
  1789.47        500.000        3583.03     
  1786.97        500.000        3583.39     
  1784.46        500.000        3583.75     
  1781.95        500.000        3584.11     
  1779.45        500.000        3584.47     
  1776.94        500.000        3584.83     
  1774.44        500.000        3585.19     
  1771.93        500.000        3585.55     
  1769.42        500.000        3585.91     
  1766.92        500.000        3586.27     
  1764.41        500.000        3586.63     
  1761.90        500.000        3586.98     
  1759.40        500.000        3587.34     
  1756.89        500.000        3587.70     
  1754.39        500.000        3588.06     
  1751.88        500.000        3588.42     
  1749.37        500.000        3588.78     
  1746.87        500.000        3589.14     
  1744.36        500.000        3589.49     
  1741.85        500.000        3589.85     
  1739.35        500.000        3590.21     
  1736.84        500.000        3590.57     
  1734.34        500.000        3590.93     
  1731.83        500.000        3591.28     
  1729.32        500.000        3591.64     
  1726.82        500.000        3592.00     
  1724.31        500.000        3592.36     
  1721.80        500.000        3592.71     
  1719.30        500.000        3593.07     
  1716.79        500.000        3593.43     
  1714.29        500.000        3593.78     
  1711.78        500.000        3594.14     
  1709.27        500.000        3594.50     
  1706.77        500.000        3594.85     
  1704.26        500.000        3595.21     
  1701.75        500.000        3595.57     
  1699.25        500.000        3595.92     
  1696.74        500.000        3596.28     
  1694.24        500.000        3596.63     
  1691.73        500.000        3596.99     
  1689.22        500.000        3597.35     
  1686.72        500.000        3597.70     
  1684.21        500.000        3598.06     
  1681.70        500.000        3598.41     
  1679.20        500.000        3598.77     
  1676.69        500.000        3599.12     
  1674.19        500.000        3599.48     
  1671.68        500.000        3599.83     
  1669.17        500.000        3600.19     
  1666.67        500.000        3610.78     
  1664.16        500.000        3611.21     
  1661.65        500.000        3611.48     
  1659.15        500.000        3611.74     
  1656.64        500.000        3612.05     
  1654.14        500.000        3612.25     
  1651.63        500.000        3612.58     
  1649.12        500.000        3612.79     
  1646.62        500.000        3613.16     
  1644.11        500.000        3613.31     
  1641.60        500.000        3613.63     
  1639.10        500.000        3613.88     
  1636.59        500.000        3614.17     
  1634.09        500.000        3614.48     
  1631.58        500.000        3614.70     
  1629.07        500.000        3614.98     
  1626.57        500.000        3619.38     
  1624.06        500.000        3611.39     
  1621.55        500.000        3615.82     
  1619.05        500.000        3616.06     
  1616.54        500.000        3611.50     
  1614.04        500.000        3411.97     
  1611.53        500.000        3415.17     
  1609.02        500.000        3417.43     
  1606.52        500.000        3420.23     
  1604.01        500.000        3421.88     
  1601.50        500.000        3421.70     
  1599.00        500.000        4522.50     
  1596.49        500.000        3428.10     
  1593.98        500.000        3429.91     
  1591.48        500.000        3433.25     
  1588.97        500.000        3433.59     
  1586.47        500.000        3436.54     
  1583.96        500.000        3440.41     
  1581.45        500.000        3441.18     
  1578.95        500.000        3444.49     
  1576.44        500.000        3446.60     
  1573.93        500.000        3448.44     
  1571.43        500.000        3450.37     
  1568.92        500.000        3452.64     
  1566.42        500.000        3455.34     
  1563.91        500.000        3457.07     
  1561.40        500.000        3459.47     
  1558.90        500.000        3461.32     
  1556.39        500.000        3464.48     
  1553.88        500.000        3465.63     
  1551.38        500.000        3467.41     
  1548.87        500.000        3471.76     
  1546.37        500.000        3472.91     
  1543.86        500.000        3475.43     
  1541.35        500.000        3476.18     
  1538.85        500.000        3479.50     
  1536.34        500.000        3480.43     
  1533.83        500.000        3485.00     
  1531.33        500.000        3500.85     
  1528.82        500.000        3487.67     
  1526.32        500.000        3489.71     
  1523.81        500.000        3491.35     
  1521.30        500.000        3494.21     
  1518.80        500.000        3496.40     
  1516.29        500.000        3496.82     
  1513.78        500.000        3500.96     
  1511.28        500.000        3502.26     
  1508.77        500.000        3505.47     
  1506.27        500.000        3506.48     
  1503.76        500.000        3510.67     
  1501.25        500.000        3511.95     
  1498.75        500.000        3513.60     
  1496.24        500.000        3516.97     
  1493.73        500.000        3519.08     
  1491.23        500.000        3340.04     
  1488.72        500.000        3331.07     
  1486.22        500.000        3333.87     
  1483.71        500.000        3334.19     
  1481.20        500.000        3335.93     
  1478.70        500.000        3335.44     
  1476.19        500.000        3336.26     
  1473.68        500.000        3336.60     
  1471.18        500.000        3339.62     
  1468.67        500.000        3333.56     
  1466.17        500.000        3320.64     
  1463.66        500.000        3320.28     
  1461.15        500.000        3320.81     
  1458.65        500.000        3323.28     
  1456.14        500.000        3326.05     
  1453.63        500.000        3326.01     
  1451.13        500.000        3326.48     
  1448.62        500.000        3329.71     
  1446.12        500.000        3331.35     
  1443.61        500.000        3307.45     
  1441.10        500.000        3309.13     
  1438.60        500.000        3311.68     
  1436.09        500.000        3314.62     
  1433.58        500.000        3318.76     
  1431.08        500.000        3321.23     
  1428.57        500.000        3323.61     
  1426.07        500.000        3325.79     
  1423.56        500.000        3328.46     
  1421.05        500.000        3330.87     
  1418.55        500.000        3333.50     
  1416.04        500.000        3335.76     
  1413.53        500.000        3338.23     
  1411.03        500.000        3340.97     
  1408.52        500.000        3343.20     
  1406.02        500.000        3345.83     
  1403.51        500.000        3348.39     
  1401.00        500.000        3350.78     
  1398.50        500.000        3353.43     
  1395.99        500.000        3356.33     
  1393.48        500.000        3358.85     
  1390.98        500.000        3361.43     
  1388.47        500.000        3364.09     
  1385.96        500.000        3231.39     
  1383.46        500.000        3173.04     
  1380.95        500.000        3176.25     
  1378.45        500.000        3179.33     
  1375.94        500.000        3182.54     
  1373.43        500.000        3185.88     
  1370.93        500.000        3189.12     
  1368.42        500.000        3192.25     
  1365.91        500.000        3195.29     
  1363.41        500.000        3199.13     
  1360.90        500.000        3201.65     
  1358.40        500.000        3207.37     
  1355.89        500.000        3243.92     
  1353.38        500.000        3247.71     
  1350.88        500.000        3251.67     
  1348.37        500.000        3255.94     
  1345.86        500.000        3260.00     
  1343.36        500.000        3264.37     
  1340.85        500.000        3268.29     
  1338.35        500.000        3272.22     
  1335.84        500.000        3276.45     
  1333.33        500.000        3280.12     
  1330.83        500.000        3283.89     
  1328.32        500.000        3287.65     
  1325.81        500.000        3291.08     
  1323.31        500.000        3294.79     
  1320.80        500.000        3297.78     
  1318.30        500.000        3300.43     
  1315.79        500.000        3304.05     
  1313.28        500.000        3306.19     
  1310.78        500.000        3310.07     
  1308.27        500.000        3305.74     
  1305.76        500.000        3316.48     
  1303.26        500.000        3310.78     
  1300.75        500.000        3321.52     
  1298.25        500.000        3307.95     
  1295.74        500.000        3347.93     
  1293.23        500.000        3325.63     
  1290.73        500.000        3324.50     
  1288.22        500.000        3325.39     
  1285.71        500.000        3359.40     
  1283.21        500.000        3375.66     
  1280.70        500.000        3377.24     
  1278.20        500.000        3380.66     
  1275.69        500.000        3379.87     
  1273.18        500.000        3381.12     
  1270.68        500.000        3381.95     
  1268.17        500.000        3383.08     
  1265.66        500.000        3383.83     
  1263.16        500.000        2918.60     
  1260.65        500.000        2863.97     
  1258.15        500.000        2866.60     
  1255.64        500.000        2867.88     
  1253.13        500.000        2868.54     
  1250.63        500.000        2870.84     
  1248.12        500.000        2872.85     
  1245.61        500.000        2874.45     
  1243.11        500.000        2875.85     
  1240.60        500.000        2876.83     
  1238.10        500.000        2877.51     
  1235.59        500.000        2877.98     
  1233.08        500.000        2878.11     
  1230.58        500.000        2878.02     
  1228.07        500.000        2877.77     
  1225.56        500.000        2877.26     
  1223.06        500.000        2876.55     
  1220.55        500.000        2875.75     
  1218.05        500.000        2874.79     
  1215.54        500.000        2874.69     
  1213.03        500.000        2873.09     
  1210.53        500.000        2874.93     
  1208.02        500.000        2874.09     
  1205.51        500.000        2873.70     
  1203.01        500.000        2871.78     
  1200.50        500.000        2688.66     
  1197.99        500.000        2685.57     
  1195.49        500.000        2683.77     
  1192.98        500.000        2680.16     
  1190.48        500.000        2664.75     
  1187.97        500.000        2655.40     
  1185.46        500.000        2641.22     
  1182.96        500.000        2638.39     
  1180.45        500.000        2641.44     
  1177.94        500.000        2636.98     
  1175.44        500.000        2641.67     
  1172.93        500.000        2637.11     
  1170.43        500.000        2638.29     
  1167.92        500.000        2638.10     
  1165.41        500.000        2638.17     
  1162.91        500.000        2637.45     
  1160.40        500.000        2638.14     
  1157.89        500.000        2637.62     
  1155.39        500.000        2638.21     
  1152.88        500.000        2637.77     
  1150.38        500.000        2637.83     
  1147.87        500.000        2637.92     
  1145.36        500.000        2638.00     
  1142.86        500.000        2638.10     
  1140.35        500.000        2638.23     
  1137.84        500.000        2638.27     
  1135.34        500.000        2638.34     
  1132.83        500.000        2638.44     
  1130.33        500.000        2638.54     
  1127.82        500.000        2638.62     
  1125.31        500.000        2638.77     
  1122.81        500.000        2638.80     
  1120.30        500.000        2638.88     
  1117.79        500.000        2638.97     
  1115.29        500.000        2639.06     
  1112.78        500.000        2639.15     
  1110.28        500.000        2639.24     
  1107.77        500.000        2639.33     
  1105.26        500.000        2639.42     
  1102.76        500.000        2639.52     
  1100.25        500.000        2639.61     
  1097.74        500.000        2639.69     
  1095.24        500.000        2639.80     
  1092.73        500.000        2639.89     
  1090.23        500.000        2639.97     
  1087.72        500.000        2640.06     
  1085.21        500.000        2640.16     
  1082.71        500.000        2640.26     
  1080.20        500.000        2640.36     
  1077.69        500.000        2640.46     
  1075.19        500.000        2640.53     
  1072.68        500.000        2640.63     
  1070.18        500.000        2640.71     
  1067.67        500.000        2640.80     
  1065.16        500.000        2640.89     
  1062.66        500.000        2640.99     
  1060.15        500.000        2641.09     
  1057.64        500.000        2641.18     
  1055.14        500.000        2641.28     
  1052.63        500.000        2641.38     
  1050.13        500.000        2641.47     
  1047.62        500.000        2641.56     
  1045.11        500.000        2641.65     
  1042.61        500.000        2641.75     
  1040.10        500.000        2641.84     
  1037.59        500.000        2641.94     
  1035.09        500.000        2642.03     
  1032.58        500.000        2642.13     
  1030.08        500.000        2642.23     
  1027.57        500.000        2642.31     
  1025.06        500.000        2642.42     
  1022.56        500.000        2642.50     
  1020.05        500.000        2642.60     
  1017.54        500.000        2642.65     
  1015.04        500.000        2642.80     
  1012.53        500.000        2642.89     
  1010.03        500.000        2642.92     
  1007.52        500.000        2643.06     
  1005.01        500.000        2643.16     
  1002.51        500.000        2643.26     
  1000.00        500.000        2643.35     
