|6.6.6
Archiving\03_Data\eqLP/QFM/KHA22/KHA22_6.tab                              
           1
T(K)    
  0.000000000000000E+000
  0.000000000000000E+000
           0
           3
T(K)           P(bar)         rho,kg/m3     
  2000.00        500.000        3988.75     
  1996.79        500.000        3971.59     
  1993.59        500.000        3955.12     
  1990.38        500.000        3939.32     
  1987.18        500.000        3924.13     
  1983.97        500.000        3909.54     
  1980.77        500.000        3895.49     
  1977.56        500.000        3881.97     
  1974.36        500.000        3868.95     
  1971.15        500.000        3844.53     
  1967.95        500.000        3821.71     
  1964.74        500.000        3800.34     
  1961.54        500.000        3780.28     
  1958.33        500.000        3761.42     
  1955.13        500.000        3743.66     
  1951.92        500.000        3726.91     
  1948.72        500.000        3711.08     
  1945.51        500.000        3674.03     
  1942.31        500.000        3641.46     
  1939.10        500.000        3612.60     
  1935.90        500.000        3586.87     
  1932.69        500.000        3563.78     
  1929.49        500.000        3542.96     
  1926.28        500.000        3524.09     
  1923.08        500.000        3506.92     
  1919.87        500.000        3455.16     
  1916.67        500.000        3415.98     
  1913.46        500.000        3385.33     
  1910.26        500.000        3360.72     
  1907.05        500.000        3340.55     
  1903.85        500.000        3323.73     
  1900.64        500.000        3309.51     
  1897.44        500.000        3297.35     
  1894.23        500.000        3275.85     
  1891.03        500.000        3259.56     
  1887.82        500.000        3246.82     
  1884.62        500.000        3236.60     
  1881.41        500.000        3202.10     
  1878.21        500.000        3186.87     
  1875.00        500.000        3186.35     
  1871.79        500.000        3185.97     
  1868.59        500.000        3186.43     
  1865.38        500.000        3186.89     
  1862.18        500.000        3187.35     
  1858.97        500.000        3187.81     
  1855.77        500.000        3188.27     
  1852.56        500.000        3188.73     
  1849.36        500.000        3189.19     
  1846.15        500.000        3189.66     
  1842.95        500.000        3190.99     
  1839.74        500.000        3192.25     
  1836.54        500.000        3193.45     
  1833.33        500.000        3194.59     
  1830.13        500.000        3195.69     
  1826.92        500.000        3196.74     
  1823.72        500.000        3197.75     
  1820.51        500.000        3198.72     
  1817.31        500.000        3200.28     
  1814.10        500.000        3201.78     
  1810.90        500.000        3203.22     
  1807.69        500.000        3204.60     
  1804.49        500.000        3205.93     
  1801.28        500.000        3207.22     
  1798.08        500.000        3208.47     
  1794.87        500.000        3209.68     
  1791.67        500.000        3211.28     
  1788.46        500.000        3212.84     
  1785.26        500.000        3214.35     
  1782.05        500.000        3215.81     
  1778.85        500.000        3217.23     
  1775.64        500.000        3218.61     
  1772.44        500.000        3219.95     
  1769.23        500.000        3221.26     
  1766.03        500.000        3222.81     
  1762.82        500.000        3224.33     
  1759.62        500.000        3225.81     
  1756.41        500.000        3227.25     
  1753.21        500.000        3228.66     
  1750.00        500.000        3230.03     
  1746.79        500.000        3231.38     
  1743.59        500.000        3232.69     
  1740.38        500.000        3234.17     
  1737.18        500.000        3235.62     
  1733.97        500.000        3237.03     
  1730.77        500.000        3238.42     
  1727.56        500.000        3239.78     
  1724.36        500.000        3241.11     
  1721.15        500.000        3242.42     
  1717.95        500.000        3243.71     
  1714.74        500.000        3245.09     
  1711.54        500.000        3246.44     
  1708.33        500.000        3247.77     
  1705.13        500.000        3249.08     
  1701.92        500.000        3250.37     
  1698.72        500.000        3251.63     
  1695.51        500.000        3252.88     
  1692.31        500.000        3254.11     
  1689.10        500.000        3255.37     
  1685.90        500.000        3256.62     
  1682.69        500.000        3257.84     
  1679.49        500.000        3259.05     
  1676.28        500.000        3260.25     
  1673.08        500.000        3261.43     
  1669.87        500.000        3262.59     
  1666.67        500.000        3263.74     
  1663.46        500.000        3264.88     
  1660.26        500.000        3266.00     
  1657.05        500.000        3267.12     
  1653.85        500.000        3268.22     
  1650.64        500.000        3269.31     
  1647.44        500.000        3270.38     
  1644.23        500.000        3271.45     
  1641.03        500.000        3272.50     
  1637.82        500.000        3273.52     
  1634.62        500.000        3274.54     
  1631.41        500.000        3275.54     
  1628.21        500.000        3276.53     
  1625.00        500.000        3277.52     
  1621.79        500.000        3278.50     
  1618.59        500.000        3279.46     
  1615.38        500.000        3280.42     
  1612.18        500.000        3281.34     
  1608.97        500.000        3282.24     
  1605.77        500.000        3283.14     
  1602.56        500.000        3284.04     
  1599.36        500.000        3284.92     
  1596.15        500.000        3285.80     
  1592.95        500.000        3286.68     
  1589.74        500.000        3287.55     
  1586.54        500.000        3287.17     
  1583.33        500.000        3286.50     
  1580.13        500.000        3285.91     
  1576.92        500.000        3285.36     
  1573.72        500.000        3284.98     
  1570.51        500.000        3284.62     
  1567.31        500.000        3284.29     
  1564.10        500.000        3283.98     
  1560.90        500.000        3283.86     
  1557.69        500.000        3283.75     
  1554.49        500.000        3283.65     
  1551.28        500.000        3283.57     
  1548.08        500.000        3283.50     
  1544.87        500.000        3283.44     
  1541.67        500.000        3283.39     
  1538.46        500.000        3283.35     
  1535.26        500.000        3283.44     
  1532.05        500.000        3283.54     
  1528.85        500.000        3283.65     
  1525.64        500.000        3283.76     
  1522.44        500.000        3283.88     
  1519.23        500.000        3284.00     
  1516.03        500.000        3284.13     
  1512.82        500.000        3284.26     
  1509.62        500.000        3284.46     
  1506.41        500.000        3284.67     
  1503.21        500.000        3284.88     
  1500.00        500.000        3285.09     
  1496.79        500.000        3285.30     
  1493.59        500.000        3285.52     
  1490.38        500.000        3285.74     
  1487.18        500.000        3285.97     
  1483.97        500.000        3286.22     
  1480.77        500.000        3286.48     
  1477.56        500.000        3286.73     
  1474.36        500.000        3286.99     
  1471.15        500.000        3287.26     
  1467.95        500.000        3287.52     
  1464.74        500.000        3287.79     
  1461.54        500.000        3288.06     
  1458.33        500.000        3288.34     
  1455.13        500.000        3288.63     
  1451.92        500.000        3288.92     
  1448.72        500.000        3289.22     
  1445.51        500.000        3289.51     
  1442.31        500.000        3289.85     
  1439.10        500.000        3290.25     
  1435.90        500.000        3290.65     
  1432.69        500.000        3291.08     
  1429.49        500.000        3291.52     
  1426.28        500.000        3291.96     
  1423.08        500.000        3292.39     
  1419.87        500.000        3292.83     
  1416.67        500.000        3293.26     
  1413.46        500.000        3293.69     
  1410.26        500.000        3294.12     
  1407.05        500.000        3294.58     
  1403.85        500.000        3295.03     
  1400.64        500.000        3295.49     
  1397.44        500.000        3295.94     
  1394.23        500.000        3296.40     
  1391.03        500.000        3296.87     
  1387.82        500.000        3296.81     
  1384.62        500.000        3296.23     
  1381.41        500.000        3296.66     
  1378.21        500.000        3297.09     
  1375.00        500.000        3297.53     
  1371.79        500.000        3297.96     
  1368.59        500.000        3298.40     
  1365.38        500.000        3298.83     
  1362.18        500.000        3299.26     
  1358.97        500.000        3292.59     
  1355.77        500.000        3293.02     
  1352.56        500.000        3293.45     
  1349.36        500.000        3293.87     
  1346.15        500.000        3294.30     
  1342.95        500.000        3294.73     
  1339.74        500.000        3295.16     
  1336.54        500.000        3295.58     
  1333.33        500.000        3290.66     
  1330.13        500.000        3291.08     
  1326.92        500.000        3291.50     
  1323.72        500.000        3291.93     
  1320.51        500.000        3292.35     
  1317.31        500.000        3292.77     
  1314.10        500.000        3293.19     
  1310.90        500.000        3293.62     
  1307.69        500.000        3289.62     
  1304.49        500.000        3290.04     
  1301.28        500.000        3289.46     
  1298.08        500.000        3289.40     
  1294.87        500.000        3253.66     
  1291.67        500.000        3242.99     
  1288.46        500.000        3243.32     
  1285.26        500.000        3243.72     
  1282.05        500.000        3243.97     
  1278.85        500.000        3244.38     
  1275.64        500.000        3244.78     
  1272.44        500.000        3245.19     
  1269.23        500.000        3245.59     
  1266.03        500.000        3246.00     
  1262.82        500.000        3246.40     
  1259.62        500.000        3246.80     
  1256.41        500.000        3246.63     
  1253.21        500.000        3247.03     
  1250.00        500.000        3247.43     
  1246.79        500.000        3247.83     
  1243.59        500.000        3248.23     
  1240.38        500.000        3248.64     
  1237.18        500.000        3249.04     
  1233.97        500.000        3249.44     
  1230.77        500.000        3249.30     
  1227.56        500.000        3249.70     
  1224.36        500.000        3250.10     
  1221.15        500.000        3250.50     
  1217.95        500.000        3250.90     
  1214.74        500.000        3251.30     
  1211.54        500.000        3251.70     
  1208.33        500.000        3252.10     
  1205.13        500.000        3252.00     
  1201.92        500.000        3252.40     
  1198.72        500.000        3252.80     
  1195.51        500.000        3253.20     
  1192.31        500.000        3253.59     
  1189.10        500.000        3253.99     
  1185.90        500.000        3254.39     
  1182.69        500.000        3254.78     
  1179.49        500.000        3254.73     
  1176.28        500.000        3255.13     
  1173.08        500.000        3255.52     
  1169.87        500.000        3255.92     
  1166.67        500.000        3256.31     
  1163.46        500.000        3256.71     
  1160.26        500.000        3257.10     
  1157.05        500.000        3257.50     
  1153.85        500.000        3257.48     
  1150.64        500.000        3257.88     
  1147.44        500.000        3258.27     
  1144.23        500.000        3258.66     
  1141.03        500.000        3259.06     
  1137.82        500.000        3259.45     
  1134.62        500.000        3259.84     
  1131.41        500.000        3260.23     
  1128.21        500.000        3260.26     
  1125.00        500.000        3260.65     
  1121.79        500.000        3261.04     
  1118.59        500.000        3261.43     
  1115.38        500.000        3261.83     
  1112.18        500.000        3262.22     
  1108.97        500.000        3262.61     
  1105.77        500.000        3263.00     
  1102.56        500.000        3263.06     
  1099.36        500.000        3263.45     
  1096.15        500.000        3263.84     
  1092.95        500.000        3264.23     
  1089.74        500.000        3264.62     
  1086.54        500.000        3265.01     
  1083.33        500.000        3265.40     
  1080.13        500.000        3265.78     
  1076.92        500.000        3265.89     
  1073.72        500.000        3266.28     
  1070.51        500.000        3266.66     
  1067.31        500.000        3267.05     
  1064.10        500.000        3267.44     
  1060.90        500.000        3267.82     
  1057.69        500.000        3268.21     
  1054.49        500.000        3268.59     
  1051.28        500.000        3268.75     
  1048.08        500.000        3269.12     
  1044.87        500.000        3269.49     
  1041.67        500.000        3269.86     
  1038.46        500.000        3270.23     
  1035.26        500.000        3270.62     
  1032.05        500.000        3271.01     
  1028.85        500.000        3271.40     
  1025.64        500.000        3271.67     
  1022.44        500.000        3272.06     
  1019.23        500.000        3272.45     
  1016.03        500.000        3272.83     
  1012.82        500.000        3273.22     
  1009.62        500.000        3273.61     
  1006.41        500.000        3274.00     
  1003.21        500.000        3274.39     
  1000.00        500.000        3274.57     
