|6.6.6
Archiving\03_Data\fracLP/QFM_m4/EETA/EETA_6.tab                           
           1
T(K)    
  0.000000000000000E+000
  0.000000000000000E+000
           0
           3
T(K)           P(bar)         rho,kg/m3     
  2000.00        500.000        3616.67     
  1997.49        500.000        3617.05     
  1994.99        500.000        3617.43     
  1992.48        500.000        3617.81     
  1989.97        500.000        3618.20     
  1987.47        500.000        3618.58     
  1984.96        500.000        3618.96     
  1982.46        500.000        3619.34     
  1979.95        500.000        3619.72     
  1977.44        500.000        3620.10     
  1974.94        500.000        3620.48     
  1972.43        500.000        3620.86     
  1969.92        500.000        3621.24     
  1967.42        500.000        3621.62     
  1964.91        500.000        3622.00     
  1962.41        500.000        3622.38     
  1959.90        500.000        3622.75     
  1957.39        500.000        3623.13     
  1954.89        500.000        3623.51     
  1952.38        500.000        3623.89     
  1949.87        500.000        3624.27     
  1947.37        500.000        3624.65     
  1944.86        500.000        3625.03     
  1942.36        500.000        3625.40     
  1939.85        500.000        3625.78     
  1937.34        500.000        3626.16     
  1934.84        500.000        3626.54     
  1932.33        500.000        3626.92     
  1929.82        500.000        3627.29     
  1927.32        500.000        3627.67     
  1924.81        500.000        3628.05     
  1922.31        500.000        3628.43     
  1919.80        500.000        3628.80     
  1917.29        500.000        3629.18     
  1914.79        500.000        3629.56     
  1912.28        500.000        3629.93     
  1909.77        500.000        3630.31     
  1907.27        500.000        3630.69     
  1904.76        500.000        3631.06     
  1902.26        500.000        3631.44     
  1899.75        500.000        3631.81     
  1897.24        500.000        3632.19     
  1894.74        500.000        3632.57     
  1892.23        500.000        3632.94     
  1889.72        500.000        3633.32     
  1887.22        500.000        3633.69     
  1884.71        500.000        3634.07     
  1882.21        500.000        3634.44     
  1879.70        500.000        3634.82     
  1877.19        500.000        3635.19     
  1874.69        500.000        3635.57     
  1872.18        500.000        3635.94     
  1869.67        500.000        3636.31     
  1867.17        500.000        3636.69     
  1864.66        500.000        3637.06     
  1862.16        500.000        3637.44     
  1859.65        500.000        3637.81     
  1857.14        500.000        3638.18     
  1854.64        500.000        3638.56     
  1852.13        500.000        3638.93     
  1849.62        500.000        3639.31     
  1847.12        500.000        3639.68     
  1844.61        500.000        3640.05     
  1842.11        500.000        3640.42     
  1839.60        500.000        3640.80     
  1837.09        500.000        3641.17     
  1834.59        500.000        3641.54     
  1832.08        500.000        3641.92     
  1829.57        500.000        3642.29     
  1827.07        500.000        3642.66     
  1824.56        500.000        3643.03     
  1822.06        500.000        3643.40     
  1819.55        500.000        3643.78     
  1817.04        500.000        3644.15     
  1814.54        500.000        3644.52     
  1812.03        500.000        3644.89     
  1809.52        500.000        3645.26     
  1807.02        500.000        3645.63     
  1804.51        500.000        3646.00     
  1802.01        500.000        3646.37     
  1799.50        500.000        3646.75     
  1796.99        500.000        3647.12     
  1794.49        500.000        3647.49     
  1791.98        500.000        3647.86     
  1789.47        500.000        3648.23     
  1786.97        500.000        3648.60     
  1784.46        500.000        3648.97     
  1781.95        500.000        3649.34     
  1779.45        500.000        3649.71     
  1776.94        500.000        3650.08     
  1774.44        500.000        3650.45     
  1771.93        500.000        3650.82     
  1769.42        500.000        3651.18     
  1766.92        500.000        3651.55     
  1764.41        500.000        3651.92     
  1761.90        500.000        3652.29     
  1759.40        500.000        3652.66     
  1756.89        500.000        3653.03     
  1754.39        500.000        3653.40     
  1751.88        500.000        3653.77     
  1749.37        500.000        3654.13     
  1746.87        500.000        3654.50     
  1744.36        500.000        3654.87     
  1741.85        500.000        3655.24     
  1739.35        500.000        3655.61     
  1736.84        500.000        3655.97     
  1734.34        500.000        3656.34     
  1731.83        500.000        3656.71     
  1729.32        500.000        3657.08     
  1726.82        500.000        3657.44     
  1724.31        500.000        3657.81     
  1721.80        500.000        3658.18     
  1719.30        500.000        3658.54     
  1716.79        500.000        3658.91     
  1714.29        500.000        3659.28     
  1711.78        500.000        3659.64     
  1709.27        500.000        3660.01     
  1706.77        500.000        3660.38     
  1704.26        500.000        3660.74     
  1701.75        500.000        3661.11     
  1699.25        500.000        3661.47     
  1696.74        500.000        3661.84     
  1694.24        500.000        3662.20     
  1691.73        500.000        3662.57     
  1689.22        500.000        3662.94     
  1686.72        500.000        3663.30     
  1684.21        500.000        3663.67     
  1681.70        500.000        3664.03     
  1679.20        500.000        3664.40     
  1676.69        500.000        3664.76     
  1674.19        500.000        3665.12     
  1671.68        500.000        3665.49     
  1669.17        500.000        3665.85     
  1666.67        500.000        3666.22     
  1664.16        500.000        3666.58     
  1661.65        500.000        3666.95     
  1659.15        500.000        3667.31     
  1656.64        500.000        3667.67     
  1654.14        500.000        3668.04     
  1651.63        500.000        3668.40     
  1649.12        500.000        3668.76     
  1646.62        500.000        3669.13     
  1644.11        500.000        3669.49     
  1641.60        500.000        3669.85     
  1639.10        500.000        3676.76     
  1636.59        500.000        3679.00     
  1634.09        500.000        3693.61     
  1631.58        500.000        3671.30     
  1629.07        500.000        3673.50     
  1626.57        500.000        3680.18     
  1624.06        500.000        3680.04     
  1621.55        500.000        3681.20     
  1619.05        500.000        3629.22     
  1616.54        500.000        3710.34     
  1614.04        500.000        3405.70     
  1611.53        500.000        3407.26     
  1609.02        500.000        3408.58     
  1606.52        500.000        3408.90     
  1604.01        500.000        3413.08     
  1601.50        500.000        3414.69     
  1599.00        500.000        3416.45     
  1596.49        500.000        3418.62     
  1593.98        500.000        3420.16     
  1591.48        500.000        3421.51     
  1588.97        500.000        3423.56     
  1586.47        500.000        3426.89     
  1583.96        500.000        3427.85     
  1581.45        500.000        3429.03     
  1578.95        500.000        3430.84     
  1576.44        500.000        3432.36     
  1573.93        500.000        3434.45     
  1571.43        500.000        3436.55     
  1568.92        500.000        3438.78     
  1566.42        500.000        3439.57     
  1563.91        500.000        3441.38     
  1561.40        500.000        3444.17     
  1558.90        500.000        3446.01     
  1556.39        500.000        3448.52     
  1553.88        500.000        3449.12     
  1551.38        500.000        3449.14     
  1548.87        500.000        3458.58     
  1546.37        500.000        4512.89     
  1543.86        500.000        3455.84     
  1541.35        500.000        3458.74     
  1538.85        500.000        3460.27     
  1536.34        500.000        3453.77     
  1533.83        500.000        3301.41     
  1531.33        500.000        3293.09     
  1528.82        500.000        3295.25     
  1526.32        500.000        3296.26     
  1523.81        500.000        3297.44     
  1521.30        500.000        3298.83     
  1518.80        500.000        3306.12     
  1516.29        500.000        3300.90     
  1513.78        500.000        3307.42     
  1511.28        500.000        3303.54     
  1508.77        500.000        3305.58     
  1506.27        500.000        3309.98     
  1503.76        500.000        3308.48     
  1501.25        500.000        3304.59     
  1498.75        500.000        3293.71     
  1496.24        500.000        3296.05     
  1493.73        500.000        3298.64     
  1491.23        500.000        3298.95     
  1488.72        500.000        3302.56     
  1486.22        500.000        3302.30     
  1483.71        500.000        3303.91     
  1481.20        500.000        3305.48     
  1478.70        500.000        3307.30     
  1476.19        500.000        3307.78     
  1473.68        500.000        3309.99     
  1471.18        500.000        3311.93     
  1468.67        500.000        3315.78     
  1466.17        500.000        3293.31     
  1463.66        500.000        3295.22     
  1461.15        500.000        3297.57     
  1458.65        500.000        3299.70     
  1456.14        500.000        3301.89     
  1453.63        500.000        3304.43     
  1451.13        500.000        3306.14     
  1448.62        500.000        3308.64     
  1446.12        500.000        3311.04     
  1443.61        500.000        3313.31     
  1441.10        500.000        3315.56     
  1438.60        500.000        3317.94     
  1436.09        500.000        3320.37     
  1433.58        500.000        3322.54     
  1431.08        500.000        3324.73     
  1428.57        500.000        3327.31     
  1426.07        500.000        3329.87     
  1423.56        500.000        3332.22     
  1421.05        500.000        3334.74     
  1418.55        500.000        3337.12     
  1416.04        500.000        3339.39     
  1413.53        500.000        3341.92     
  1411.03        500.000        3344.64     
  1408.52        500.000        3160.70     
  1406.02        500.000        3152.71     
  1403.51        500.000        3155.87     
  1401.00        500.000        3158.92     
  1398.50        500.000        3162.13     
  1395.99        500.000        3165.40     
  1393.48        500.000        3168.57     
  1390.98        500.000        3171.89     
  1388.47        500.000        3174.92     
  1385.96        500.000        3178.03     
  1383.46        500.000        3181.39     
  1380.95        500.000        3184.53     
  1378.45        500.000        3187.91     
  1375.94        500.000        3191.10     
  1373.43        500.000        3194.58     
  1370.93        500.000        3197.84     
  1368.42        500.000        3200.78     
  1365.91        500.000        3204.32     
  1363.41        500.000        3207.60     
  1360.90        500.000        3211.06     
  1358.40        500.000        3214.35     
  1355.89        500.000        3217.74     
  1353.38        500.000        3221.26     
  1350.88        500.000        3224.58     
  1348.37        500.000        3228.02     
  1345.86        500.000        3232.07     
  1343.36        500.000        3234.70     
  1340.85        500.000        3237.94     
  1338.35        500.000        3247.20     
  1335.84        500.000        3245.21     
  1333.33        500.000        3278.51     
  1330.83        500.000        3286.53     
  1328.32        500.000        3289.39     
  1325.81        500.000        3292.40     
  1323.31        500.000        3294.66     
  1320.80        500.000        3297.69     
  1318.30        500.000        3300.01     
  1315.79        500.000        3303.16     
  1313.28        500.000        3306.58     
  1310.78        500.000        3329.12     
  1308.27        500.000        3346.27     
  1305.76        500.000        3347.86     
  1303.26        500.000        3351.40     
  1300.75        500.000        3352.89     
  1298.25        500.000        3354.75     
  1295.74        500.000        3356.64     
  1293.23        500.000        3357.34     
  1290.73        500.000        3359.46     
  1288.22        500.000        3361.02     
  1285.71        500.000        3362.39     
  1283.21        500.000        3363.39     
  1280.70        500.000        3364.64     
  1278.20        500.000        3365.09     
  1275.69        500.000        3363.65     
  1273.18        500.000        3366.96     
  1270.68        500.000        3367.67     
  1268.17        500.000        3213.95     
  1265.66        500.000        2854.68     
  1263.16        500.000        2857.86     
  1260.65        500.000        2860.09     
  1258.15        500.000        2862.35     
  1255.64        500.000        2864.18     
  1253.13        500.000        2865.97     
  1250.63        500.000        2867.36     
  1248.12        500.000        2868.58     
  1245.61        500.000        2869.87     
  1243.11        500.000        2870.61     
  1240.60        500.000        2871.11     
  1238.10        500.000        2871.81     
  1235.59        500.000        2872.62     
  1233.08        500.000        2873.32     
  1230.58        500.000        2873.65     
  1228.07        500.000        2873.56     
  1225.56        500.000        2873.97     
  1223.06        500.000        2871.89     
  1220.55        500.000        2873.14     
  1218.05        500.000        2871.45     
  1215.54        500.000        2772.85     
  1213.03        500.000        2685.20     
  1210.53        500.000        2684.79     
  1208.02        500.000        2680.89     
  1205.51        500.000        2684.13     
  1203.01        500.000        2678.10     
  1200.50        500.000        2669.99     
  1197.99        500.000        2667.78     
  1195.49        500.000        2664.48     
  1192.98        500.000        2655.82     
  1190.48        500.000        2631.52     
  1187.97        500.000        2631.69     
  1185.46        500.000        2631.80     
  1182.96        500.000        2631.91     
  1180.45        500.000        2632.03     
  1177.94        500.000        2632.08     
  1175.44        500.000        2632.22     
  1172.93        500.000        2632.34     
  1170.43        500.000        2632.40     
  1167.92        500.000        2629.88     
  1165.41        500.000        2632.69     
  1162.91        500.000        2632.80     
  1160.40        500.000        2632.91     
  1157.89        500.000        2632.96     
  1155.39        500.000        2630.21     
  1152.88        500.000        2633.19     
  1150.38        500.000        2633.32     
  1147.87        500.000        2633.42     
  1145.36        500.000        2633.51     
  1142.86        500.000        2633.63     
  1140.35        500.000        2633.75     
  1137.84        500.000        2633.85     
  1135.34        500.000        2633.96     
  1132.83        500.000        2634.07     
  1130.33        500.000        2634.18     
  1127.82        500.000        2634.29     
  1125.31        500.000        2634.40     
  1122.81        500.000        2634.51     
  1120.30        500.000        2634.63     
  1117.79        500.000        2634.74     
  1115.29        500.000        2634.85     
  1112.78        500.000        2634.96     
  1110.28        500.000        2635.07     
  1107.77        500.000        2635.18     
  1105.26        500.000        2635.29     
  1102.76        500.000        2635.41     
  1100.25        500.000        2635.52     
  1097.74        500.000        2635.63     
  1095.24        500.000        2635.74     
  1092.73        500.000        2635.87     
  1090.23        500.000        2633.67     
  1087.72        500.000        2633.15     
  1085.21        500.000        2633.26     
  1082.71        500.000        2633.37     
  1080.20        500.000        2633.48     
  1077.69        500.000        2633.59     
  1075.19        500.000        2633.70     
  1072.68        500.000        2635.94     
  1070.18        500.000        2633.91     
  1067.67        500.000        2634.02     
  1065.16        500.000        2634.13     
  1062.66        500.000        2634.50     
  1060.15        500.000        2634.34     
  1057.64        500.000        2634.45     
  1055.14        500.000        2634.56     
  1052.63        500.000        2634.67     
  1050.13        500.000        2634.77     
  1047.62        500.000        2634.88     
  1045.11        500.000        2635.10     
  1042.61        500.000        2635.10     
  1040.10        500.000        2635.20     
  1037.59        500.000        2635.31     
  1035.09        500.000        2635.42     
  1032.58        500.000        2635.53     
  1030.08        500.000        2635.63     
  1027.57        500.000        2635.74     
  1025.06        500.000        2635.76     
  1022.56        500.000        2635.84     
  1020.05        500.000        2636.06     
  1017.54        500.000        2636.02     
  1015.04        500.000        2636.07     
  1012.53        500.000        2636.16     
  1010.03        500.000        2636.49     
  1007.52        500.000        2636.60     
  1005.01        500.000        2636.70     
  1002.51        500.000        2636.81     
  1000.00        500.000        2636.92     
