|6.6.6
Archiving\03_Data\eqfracLP/QFM_m2.5/GRV/GRV_6.tab                         
           1
T(K)    
  0.000000000000000E+000
  0.000000000000000E+000
           0
           3
T(K)           P(bar)         rho,kg/m3     
  1560.90        500.000        3290.48     
  1559.49        500.000        3242.25     
  1558.09        500.000        3241.77     
  1556.68        500.000        3243.34     
  1555.28        500.000        3252.30     
  1553.87        500.000        3244.28     
  1552.47        500.000        3244.40     
  1551.06        500.000        3245.46     
  1549.65        500.000        3246.27     
  1548.25        500.000        3246.70     
  1546.84        500.000        3247.60     
  1545.44        500.000        3247.54     
  1544.03        500.000        3248.20     
  1542.63        500.000        3249.25     
  1541.22        500.000        3249.52     
  1539.81        500.000        3250.31     
  1538.41        500.000        3250.99     
  1537.00        500.000        3243.23     
  1535.60        500.000        3237.03     
  1534.19        500.000        3237.67     
  1532.78        500.000        3237.76     
  1531.38        500.000        3242.94     
  1529.97        500.000        3247.93     
  1528.57        500.000        3240.53     
  1527.16        500.000        3238.66     
  1525.76        500.000        3239.75     
  1524.35        500.000        3241.13     
  1522.94        500.000        3242.17     
  1521.54        500.000        3242.46     
  1520.13        500.000        3243.28     
  1518.73        500.000        3244.61     
  1517.32        500.000        3245.23     
  1515.92        500.000        3246.61     
  1514.51        500.000        3247.58     
  1513.10        500.000        3248.69     
  1511.70        500.000        3249.95     
  1510.29        500.000        3251.42     
  1508.89        500.000        3252.30     
  1507.48        500.000        3253.55     
  1506.08        500.000        3254.83     
  1504.67        500.000        3255.99     
  1503.26        500.000        3257.18     
  1501.86        500.000        2836.96     
  1500.45        500.000        3259.59     
  1499.05        500.000        3260.63     
  1497.64        500.000        3261.95     
  1496.23        500.000        3262.95     
  1494.83        500.000        3264.41     
  1493.42        500.000        3265.40     
  1492.02        500.000        3266.90     
  1490.61        500.000        3267.68     
  1489.21        500.000        3268.97     
  1487.80        500.000        3270.14     
  1486.39        500.000        3271.39     
  1484.99        500.000        3272.41     
  1483.58        500.000        3273.38     
  1482.18        500.000        3274.67     
  1480.77        500.000        3275.92     
  1479.37        500.000        3276.94     
  1477.96        500.000        3278.27     
  1476.55        500.000        3279.40     
  1475.15        500.000        3280.65     
  1473.74        500.000        3282.43     
  1472.34        500.000        3284.57     
  1470.93        500.000        3287.66     
  1469.53        500.000        3287.84     
  1468.12        500.000        3289.79     
  1466.71        500.000        3290.78     
  1465.31        500.000        3292.21     
  1463.90        500.000        3293.41     
  1462.50        500.000        3294.66     
  1461.09        500.000        3295.88     
  1459.68        500.000        3297.09     
  1458.28        500.000        3298.58     
  1456.87        500.000        3299.60     
  1455.47        500.000        3300.94     
  1454.06        500.000        3302.22     
  1452.66        500.000        3303.50     
  1451.25        500.000        3304.61     
  1449.84        500.000        3306.00     
  1448.44        500.000        3307.25     
  1447.03        500.000        3308.44     
  1445.63        500.000        3309.91     
  1444.22        500.000        3311.19     
  1442.82        500.000        3312.73     
  1441.41        500.000        3313.37     
  1440.00        500.000        3314.96     
  1438.60        500.000        3316.31     
  1437.19        500.000        3317.66     
  1435.79        500.000        3319.09     
  1434.38        500.000        3320.10     
  1432.98        500.000        3321.54     
  1431.57        500.000        3322.80     
  1430.16        500.000        3324.32     
  1428.76        500.000        3325.52     
  1427.35        500.000        3326.77     
  1425.95        500.000        3328.27     
  1424.54        500.000        3329.43     
  1423.14        500.000        3331.04     
  1421.73        500.000        3332.06     
  1420.32        500.000        3333.66     
  1418.92        500.000        3334.90     
  1417.51        500.000        3336.54     
  1416.11        500.000        3337.74     
  1414.70        500.000        3338.99     
  1413.29        500.000        3340.58     
  1411.89        500.000        3342.07     
  1410.48        500.000        3343.17     
  1409.08        500.000        3344.54     
  1407.67        500.000        3346.05     
  1406.27        500.000        3347.50     
  1404.86        500.000        3348.76     
  1403.45        500.000        3350.52     
  1402.05        500.000        3352.04     
  1400.64        500.000        3155.47     
  1399.24        500.000        3157.47     
  1397.83        500.000        3158.43     
  1396.43        500.000        3160.20     
  1395.02        500.000        3161.99     
  1393.61        500.000        3163.66     
  1392.21        500.000        3165.43     
  1390.80        500.000        3167.24     
  1389.40        500.000        3168.81     
  1387.99        500.000        3170.73     
  1386.59        500.000        3172.55     
  1385.18        500.000        3174.15     
  1383.77        500.000        3176.01     
  1382.37        500.000        3177.67     
  1380.96        500.000        3179.36     
  1379.56        500.000        3181.55     
  1378.15        500.000        3183.12     
  1376.74        500.000        3184.93     
  1375.34        500.000        3186.67     
  1373.93        500.000        3188.56     
  1372.53        500.000        3190.25     
  1371.12        500.000        3192.10     
  1369.72        500.000        3193.93     
  1368.31        500.000        3196.18     
  1366.90        500.000        3197.61     
  1365.50        500.000        3199.40     
  1364.09        500.000        3201.29     
  1362.69        500.000        3203.16     
  1361.28        500.000        3205.05     
  1359.88        500.000        3206.56     
  1358.47        500.000        3208.84     
  1357.06        500.000        3210.63     
  1355.66        500.000        3212.45     
  1354.25        500.000        3214.23     
  1352.85        500.000        3216.06     
  1351.44        500.000        3218.11     
  1350.04        500.000        3219.93     
  1348.63        500.000        3222.13     
  1347.22        500.000        3223.69     
  1345.82        500.000        3225.44     
  1344.41        500.000        3227.30     
  1343.01        500.000        3229.29     
  1341.60        500.000        3231.40     
  1340.19        500.000        3233.33     
  1338.79        500.000        3234.99     
  1337.38        500.000        3236.91     
  1335.98        500.000        3238.24     
  1334.57        500.000        3240.64     
  1333.17        500.000        3242.49     
  1331.76        500.000        3244.46     
  1330.35        500.000        3246.23     
  1328.95        500.000        3277.89     
  1327.54        500.000        3288.16     
  1326.14        500.000        3296.03     
  1324.73        500.000        3296.81     
  1323.33        500.000        3294.19     
  1321.92        500.000        3300.31     
  1320.51        500.000        3301.14     
  1319.11        500.000        3304.19     
  1317.70        500.000        3304.94     
  1316.30        500.000        3293.81     
  1314.89        500.000        3308.27     
  1313.49        500.000        3309.83     
  1312.08        500.000        3310.59     
  1310.67        500.000        3312.19     
  1309.27        500.000        3314.05     
  1307.86        500.000        3316.20     
  1306.46        500.000        3316.09     
  1305.05        500.000        3318.07     
  1303.65        500.000        3319.17     
  1302.24        500.000        3321.18     
  1300.83        500.000        3323.20     
  1299.43        500.000        3323.24     
  1298.02        500.000        3323.71     
  1296.62        500.000        3341.63     
  1295.21        500.000        3361.78     
  1293.80        500.000        3363.03     
  1292.40        500.000        3363.68     
  1290.99        500.000        3365.03     
  1289.59        500.000        3366.08     
  1288.18        500.000        3367.18     
  1286.78        500.000        3367.29     
  1285.37        500.000        3368.83     
  1283.96        500.000        3369.72     
  1282.56        500.000        3370.34     
  1281.15        500.000        3371.40     
  1279.75        500.000        3372.00     
  1278.34        500.000        3372.71     
  1276.94        500.000        3373.61     
  1275.53        500.000        3373.90     
  1274.12        500.000        3374.55     
  1272.72        500.000        3375.27     
  1271.31        500.000        3375.50     
  1269.91        500.000        3376.30     
  1268.50        500.000        3376.05     
  1267.10        500.000        2873.34     
  1265.69        500.000        2859.96     
  1264.28        500.000        2862.00     
  1262.88        500.000        2864.20     
  1261.47        500.000        2865.02     
  1260.07        500.000        2866.49     
  1258.66        500.000        2867.89     
  1257.25        500.000        2869.54     
  1255.85        500.000        2870.38     
  1254.44        500.000        2871.02     
  1253.04        500.000        2871.79     
  1251.63        500.000        2874.46     
  1250.23        500.000        2873.94     
  1248.82        500.000        2874.76     
  1247.41        500.000        2875.74     
  1246.01        500.000        2876.58     
  1244.60        500.000        2877.01     
  1243.20        500.000        2877.60     
  1241.79        500.000        2877.52     
  1240.39        500.000        2878.19     
  1238.98        500.000        2878.25     
  1237.57        500.000        2878.34     
  1236.17        500.000        2879.07     
  1234.76        500.000        2879.00     
  1233.36        500.000        2879.28     
  1231.95        500.000        2879.32     
  1230.55        500.000        2878.83     
  1229.14        500.000        2879.16     
  1227.73        500.000        2879.03     
  1226.33        500.000        2878.89     
  1224.92        500.000        2879.59     
  1223.52        500.000        2879.75     
  1222.11        500.000        2879.56     
  1220.71        500.000        2879.97     
  1219.30        500.000        2879.38     
  1217.89        500.000        2879.75     
  1216.49        500.000        2707.33     
  1215.08        500.000        2691.46     
  1213.68        500.000        2691.13     
  1212.27        500.000        2689.68     
  1210.86        500.000        2693.66     
  1209.46        500.000        2689.99     
  1208.05        500.000        2684.43     
  1206.65        500.000        2680.20     
  1205.24        500.000        2703.58     
  1203.84        500.000        2700.71     
  1202.43        500.000        2697.80     
  1201.02        500.000        3001.26     
  1199.62        500.000        2671.30     
  1198.21        500.000        2685.26     
  1196.81        500.000        2890.46     
  1195.40        500.000        2752.31     
  1194.00        500.000        2669.19     
  1192.59        500.000        2663.94     
  1191.18        500.000        2655.70     
  1189.78        500.000        2644.08     
  1188.37        500.000        2632.62     
  1186.97        500.000        2632.68     
  1185.56        500.000        2632.75     
  1184.16        500.000        2632.81     
  1182.75        500.000        2632.87     
  1181.34        500.000        2632.93     
  1179.94        500.000        2633.00     
  1178.53        500.000        2633.06     
  1177.13        500.000        2633.12     
  1175.72        500.000        2633.18     
  1174.31        500.000        2633.24     
  1172.91        500.000        2633.31     
  1171.50        500.000        2633.37     
  1170.10        500.000        2633.43     
  1168.69        500.000        2633.49     
  1167.29        500.000        2633.56     
  1165.88        500.000        2633.62     
  1164.47        500.000        2633.68     
  1163.07        500.000        2633.75     
  1161.66        500.000        2633.80     
  1160.26        500.000        2633.87     
  1158.85        500.000        2633.93     
  1157.45        500.000        2633.99     
  1156.04        500.000        2634.05     
  1154.63        500.000        2634.11     
  1153.23        500.000        2634.18     
  1151.82        500.000        2634.24     
  1150.42        500.000        2634.30     
  1149.01        500.000        2634.36     
  1147.61        500.000        2634.42     
  1146.20        500.000        2634.49     
  1144.79        500.000        2634.55     
  1143.39        500.000        2634.61     
  1141.98        500.000        2634.67     
  1140.58        500.000        2634.73     
  1139.17        500.000        2634.80     
  1137.76        500.000        2634.86     
  1136.36        500.000        2634.92     
  1134.95        500.000        2634.98     
  1133.55        500.000        2635.04     
  1132.14        500.000        2635.10     
  1130.74        500.000        2635.17     
  1129.33        500.000        2635.23     
  1127.92        500.000        2635.29     
  1126.52        500.000        2635.35     
  1125.11        500.000        2635.41     
  1123.71        500.000        2635.47     
  1122.30        500.000        2635.54     
  1120.90        500.000        2635.60     
  1119.49        500.000        2635.66     
  1118.08        500.000        2635.72     
  1116.68        500.000        2635.78     
  1115.27        500.000        2635.84     
  1113.87        500.000        2635.91     
  1112.46        500.000        2635.97     
  1111.06        500.000        2636.03     
  1109.65        500.000        2636.09     
  1108.24        500.000        2636.15     
  1106.84        500.000        2634.14     
  1105.43        500.000        2634.11     
  1104.03        500.000        2634.08     
  1102.62        500.000        2634.09     
  1101.22        500.000        2634.09     
  1099.81        500.000        2634.11     
  1098.40        500.000        2634.12     
  1097.00        500.000        2634.14     
  1095.59        500.000        2634.15     
  1094.19        500.000        2634.18     
  1092.78        500.000        2634.28     
  1091.37        500.000        2634.22     
  1089.97        500.000        2634.25     
  1088.56        500.000        2634.28     
  1087.16        500.000        2634.30     
  1085.75        500.000        2634.33     
  1084.35        500.000        2634.37     
  1082.94        500.000        2634.40     
  1081.53        500.000        2634.43     
  1080.13        500.000        2634.46     
  1078.72        500.000        2634.22     
  1077.32        500.000        2634.25     
  1075.91        500.000        2634.31     
  1074.51        500.000        2634.40     
  1073.10        500.000        2634.37     
  1071.69        500.000        2634.43     
  1070.29        500.000        2634.49     
  1068.88        500.000        2634.50     
  1067.48        500.000        2634.56     
  1066.07        500.000        2634.62     
  1064.67        500.000        2634.68     
  1063.26        500.000        2634.74     
  1061.85        500.000        2634.80     
  1060.45        500.000        2634.71     
  1059.04        500.000        2634.79     
  1057.64        500.000        2634.83     
  1056.23        500.000        2634.89     
  1054.82        500.000        2634.95     
  1053.42        500.000        2635.00     
  1052.01        500.000        2635.06     
  1050.61        500.000        2635.08     
  1049.20        500.000        2635.14     
  1047.80        500.000        2635.20     
  1046.39        500.000        2635.21     
  1044.98        500.000        2635.29     
  1043.58        500.000        2635.33     
  1042.17        500.000        2635.39     
  1040.77        500.000        2635.41     
  1039.36        500.000        2635.47     
  1037.96        500.000        2635.52     
  1036.55        500.000        2635.54     
  1035.14        500.000        2635.60     
  1033.74        500.000        2635.66     
  1032.33        500.000        2635.72     
  1030.93        500.000        2635.74     
  1029.52        500.000        2635.80     
  1028.12        500.000        2635.86     
  1026.71        500.000        2635.92     
  1025.30        500.000        2635.98     
  1023.90        500.000        2635.96     
  1022.49        500.000        2636.02     
  1021.09        500.000        2636.08     
  1019.68        500.000        2636.14     
  1018.27        500.000        2636.20     
  1016.87        500.000        2636.25     
  1015.46        500.000        2636.31     
  1014.06        500.000        2636.30     
  1012.65        500.000        2636.36     
  1011.25        500.000        2636.42     
  1009.84        500.000        2636.48     
  1008.43        500.000        2636.54     
  1007.03        500.000        2636.60     
  1005.62        500.000        2636.65     
  1004.22        500.000        2636.65     
  1002.81        500.000        2636.70     
  1001.41        500.000        2636.76     
  1000.00        500.000        2636.82     
