|6.6.6
Archiving\03_Data\fracLP/QFM_m2.5/YM20/YM20_6.tab                       
           1
T(K)    
  0.000000000000000E+000
  0.000000000000000E+000
           0
           3
T(K)           P(bar)         rho,kg/m3     
  2000.00        500.000        5145.98     
  1997.49        500.000        5146.73     
  1994.99        500.000        5147.49     
  1992.48        500.000        5148.24     
  1989.97        500.000        5149.00     
  1987.47        500.000        5149.75     
  1984.96        500.000        5150.50     
  1982.46        500.000        5151.26     
  1979.95        500.000        5152.01     
  1977.44        500.000        5152.76     
  1974.94        500.000        5153.51     
  1972.43        500.000        5154.26     
  1969.92        500.000        5155.01     
  1967.42        500.000        5155.76     
  1964.91        500.000        5156.51     
  1962.41        500.000        5157.26     
  1959.90        500.000        5158.01     
  1957.39        500.000        5158.76     
  1954.89        500.000        5159.51     
  1952.38        500.000        5160.26     
  1949.87        500.000        5161.00     
  1947.37        500.000        5161.75     
  1944.86        500.000        5162.50     
  1942.36        500.000        5163.24     
  1939.85        500.000        5163.99     
  1937.34        500.000        5164.74     
  1934.84        500.000        5165.48     
  1932.33        500.000        5166.22     
  1929.82        500.000        5166.97     
  1927.32        500.000        5167.71     
  1924.81        500.000        5168.46     
  1922.31        500.000        5169.20     
  1919.80        500.000        5169.94     
  1917.29        500.000        5170.68     
  1914.79        500.000        5171.42     
  1912.28        500.000        5172.17     
  1909.77        500.000        5172.91     
  1907.27        500.000        5173.65     
  1904.76        500.000        5174.39     
  1902.26        500.000        5175.13     
  1899.75        500.000        5175.87     
  1897.24        500.000        5176.60     
  1894.74        500.000        3809.97     
  1892.23        500.000        2899.92     
  1889.72        500.000        2900.49     
  1887.22        500.000        2901.06     
  1884.71        500.000        3151.17     
  1882.21        500.000        3152.75     
  1879.70        500.000        3154.08     
  1877.19        500.000        3155.08     
  1874.69        500.000        3156.49     
  1872.18        500.000        3158.29     
  1869.67        500.000        3159.70     
  1867.17        500.000        3171.58     
  1864.66        500.000        3163.31     
  1862.16        500.000        3170.85     
  1859.65        500.000        3173.82     
  1857.14        500.000        3189.76     
  1854.64        500.000        3191.64     
  1852.13        500.000        3194.46     
  1849.62        500.000        3195.55     
  1847.12        500.000        3197.11     
  1844.61        500.000        3198.97     
  1842.11        500.000        3200.00     
  1839.60        500.000        3201.82     
  1837.09        500.000        3203.72     
  1834.59        500.000        3205.19     
  1832.08        500.000        3206.74     
  1829.57        500.000        3208.86     
  1827.07        500.000        3209.31     
  1824.56        500.000        3210.97     
  1822.06        500.000        3212.57     
  1819.55        500.000        3214.45     
  1817.04        500.000        3216.69     
  1814.54        500.000        3218.03     
  1812.03        500.000        3218.49     
  1809.52        500.000        3221.06     
  1807.02        500.000        3223.68     
  1804.51        500.000        3223.91     
  1802.01        500.000        3226.99     
  1799.50        500.000        3227.59     
  1796.99        500.000        3228.97     
  1794.49        500.000        3230.73     
  1791.98        500.000        3232.58     
  1789.47        500.000        3233.84     
  1786.97        500.000        3235.80     
  1784.46        500.000        3237.53     
  1781.95        500.000        3238.83     
  1779.45        500.000        3240.80     
  1776.94        500.000        3242.15     
  1774.44        500.000        3244.36     
  1771.93        500.000        3245.10     
  1769.42        500.000        3240.79     
  1766.92        500.000        3251.67     
  1764.41        500.000        3250.75     
  1761.90        500.000        3251.98     
  1759.40        500.000        3254.00     
  1756.89        500.000        3255.01     
  1754.39        500.000        3257.10     
  1751.88        500.000        3258.55     
  1749.37        500.000        3260.34     
  1746.87        500.000        3261.76     
  1744.36        500.000        3262.92     
  1741.85        500.000        3265.30     
  1739.35        500.000        3266.57     
  1736.84        500.000        3270.06     
  1734.34        500.000        3270.34     
  1731.83        500.000        3271.57     
  1729.32        500.000        3273.53     
  1726.82        500.000        3274.58     
  1724.31        500.000        3278.05     
  1721.80        500.000        4411.00     
  1719.30        500.000        3266.65     
  1716.79        500.000        3281.11     
  1714.29        500.000        3282.15     
  1711.78        500.000        3284.88     
  1709.27        500.000        3286.28     
  1706.77        500.000        3290.21     
  1704.26        500.000        3289.51     
  1701.75        500.000        3291.20     
  1699.25        500.000        3293.14     
  1696.74        500.000        3294.73     
  1694.24        500.000        3296.08     
  1691.73        500.000        3297.11     
  1689.22        500.000        3301.60     
  1686.72        500.000        3300.08     
  1684.21        500.000        3301.51     
  1681.70        500.000        3303.16     
  1679.20        500.000        3305.59     
  1676.69        500.000        3305.78     
  1674.19        500.000        3308.26     
  1671.68        500.000        3309.59     
  1669.17        500.000        3311.34     
  1666.67        500.000        3312.50     
  1664.16        500.000        3314.62     
  1661.65        500.000        3316.19     
  1659.15        500.000        3317.18     
  1656.64        500.000        3318.70     
  1654.14        500.000        3320.14     
  1651.63        500.000        3321.26     
  1649.12        500.000        3323.48     
  1646.62        500.000        3325.22     
  1644.11        500.000        3326.82     
  1641.60        500.000        3327.91     
  1639.10        500.000        3329.42     
  1636.59        500.000        3331.18     
  1634.09        500.000        3332.31     
  1631.58        500.000        3334.30     
  1629.07        500.000        3334.44     
  1626.57        500.000        3335.85     
  1624.06        500.000        3338.51     
  1621.55        500.000        3340.03     
  1619.05        500.000        3341.08     
  1616.54        500.000        3342.90     
  1614.04        500.000        3344.23     
  1611.53        500.000        3345.17     
  1609.02        500.000        3345.94     
  1606.52        500.000        3348.44     
  1604.01        500.000        3349.97     
  1601.50        500.000        3350.11     
  1599.00        500.000        3352.58     
  1596.49        500.000        3353.28     
  1593.98        500.000        3355.86     
  1591.48        500.000        3356.26     
  1588.97        500.000        3357.85     
  1586.47        500.000        3260.32     
  1583.96        500.000        3249.48     
  1581.45        500.000        3250.09     
  1578.95        500.000        3251.13     
  1576.44        500.000        3252.00     
  1573.93        500.000        3252.57     
  1571.43        500.000        3253.92     
  1568.92        500.000        3254.84     
  1566.42        500.000        3255.22     
  1563.91        500.000        3255.54     
  1561.40        500.000        3255.97     
  1558.90        500.000        3257.15     
  1556.39        500.000        3257.28     
  1553.88        500.000        3259.18     
  1551.38        500.000        3259.78     
  1548.87        500.000        3259.68     
  1546.37        500.000        3262.14     
  1543.86        500.000        3261.82     
  1541.35        500.000        3262.72     
  1538.85        500.000        3264.55     
  1536.34        500.000        3263.56     
  1533.83        500.000        3264.60     
  1531.33        500.000        3264.67     
  1528.82        500.000        3266.59     
  1526.32        500.000        3267.23     
  1523.81        500.000        3268.13     
  1521.30        500.000        3268.81     
  1518.80        500.000        3268.53     
  1516.29        500.000        3271.20     
  1513.78        500.000        3270.80     
  1511.28        500.000        3272.36     
  1508.77        500.000        3271.46     
  1506.27        500.000        3273.59     
  1503.76        500.000        3273.21     
  1501.25        500.000        3277.76     
  1498.75        500.000        3275.32     
  1496.24        500.000        3275.79     
  1493.73        500.000        3276.85     
  1491.23        500.000        3277.63     
  1488.72        500.000        3278.98     
  1486.22        500.000        3279.78     
  1483.71        500.000        3281.09     
  1481.20        500.000        3282.23     
  1478.70        500.000        3283.17     
  1476.19        500.000        3284.30     
  1473.68        500.000        3283.02     
  1471.18        500.000        3272.71     
  1468.67        500.000        3274.02     
  1466.17        500.000        3275.50     
  1463.66        500.000        3276.55     
  1461.15        500.000        3278.88     
  1458.65        500.000        3280.01     
  1456.14        500.000        3281.55     
  1453.63        500.000        3282.56     
  1451.13        500.000        3284.17     
  1448.62        500.000        3285.91     
  1446.12        500.000        3286.43     
  1443.61        500.000        3288.20     
  1441.10        500.000        3289.75     
  1438.60        500.000        3291.39     
  1436.09        500.000        3281.68     
  1433.58        500.000        3272.85     
  1431.08        500.000        3274.47     
  1428.57        500.000        3276.74     
  1426.07        500.000        3278.80     
  1423.56        500.000        3280.47     
  1421.05        500.000        3282.44     
  1418.55        500.000        3231.34     
  1416.04        500.000        3103.32     
  1413.53        500.000        3105.64     
  1411.03        500.000        3107.83     
  1408.52        500.000        3110.22     
  1406.02        500.000        3112.42     
  1403.51        500.000        3114.56     
  1401.00        500.000        3117.09     
  1398.50        500.000        3119.31     
  1395.99        500.000        3121.59     
  1393.48        500.000        3123.94     
  1390.98        500.000        3126.03     
  1388.47        500.000        3128.58     
  1385.96        500.000        3130.65     
  1383.46        500.000        3132.89     
  1380.95        500.000        3135.33     
  1378.45        500.000        3137.60     
  1375.94        500.000        3140.02     
  1373.43        500.000        3142.27     
  1370.93        500.000        3144.54     
  1368.42        500.000        3146.76     
  1365.91        500.000        3149.03     
  1363.41        500.000        3151.49     
  1360.90        500.000        3153.78     
  1358.40        500.000        3156.03     
  1355.89        500.000        3158.42     
  1353.38        500.000        3173.00     
  1350.88        500.000        3186.49     
  1348.37        500.000        3189.75     
  1345.86        500.000        3192.83     
  1343.36        500.000        3195.97     
  1340.85        500.000        3199.13     
  1338.35        500.000        3202.34     
  1335.84        500.000        3205.40     
  1333.33        500.000        3208.34     
  1330.83        500.000        3211.51     
  1328.32        500.000        3214.55     
  1325.81        500.000        3217.51     
  1323.31        500.000        3220.55     
  1320.80        500.000        3223.40     
  1318.30        500.000        3226.09     
  1315.79        500.000        3228.80     
  1313.28        500.000        3231.50     
  1310.78        500.000        3234.14     
  1308.27        500.000        3236.67     
  1305.76        500.000        3239.17     
  1303.26        500.000        3241.35     
  1300.75        500.000        3243.90     
  1298.25        500.000        3246.02     
  1295.74        500.000        3248.13     
  1293.23        500.000        3249.96     
  1290.73        500.000        3251.96     
  1288.22        500.000        3253.58     
  1285.71        500.000        2983.65     
  1283.21        500.000        2780.79     
  1280.70        500.000        2785.51     
  1278.20        500.000        2789.83     
  1275.69        500.000        2793.82     
  1273.18        500.000        2797.55     
  1270.68        500.000        2801.16     
  1268.17        500.000        2804.69     
  1265.66        500.000        2807.82     
  1263.16        500.000        2810.90     
  1260.65        500.000        2813.90     
  1258.15        500.000        2817.15     
  1255.64        500.000        2819.63     
  1253.13        500.000        2822.28     
  1250.63        500.000        2824.70     
  1248.12        500.000        2826.86     
  1245.61        500.000        2828.97     
  1243.11        500.000        2831.45     
  1240.60        500.000        2833.77     
  1238.10        500.000        2835.80     
  1235.59        500.000        2837.51     
  1233.08        500.000        2839.55     
  1230.58        500.000        2847.52     
  1228.07        500.000        2847.65     
  1225.56        500.000        2847.75     
  1223.06        500.000        2847.85     
  1220.55        500.000        2848.09     
  1218.05        500.000        2848.14     
  1215.54        500.000        2847.74     
  1213.03        500.000        2847.61     
  1210.53        500.000        2847.84     
  1208.02        500.000        2754.21     
  1205.51        500.000        2675.76     
  1203.01        500.000        2676.61     
  1200.50        500.000        2677.44     
  1197.99        500.000        2672.74     
  1195.49        500.000        2669.85     
  1192.98        500.000        2649.76     
  1190.48        500.000        2654.09     
  1187.97        500.000        2640.80     
  1185.46        500.000        2640.94     
  1182.96        500.000        2641.00     
  1180.45        500.000        2641.10     
  1177.94        500.000        2641.27     
  1175.44        500.000        2641.39     
  1172.93        500.000        2641.45     
  1170.43        500.000        2641.61     
  1167.92        500.000        2641.67     
  1165.41        500.000        2641.84     
  1162.91        500.000        2641.90     
  1160.40        500.000        2642.01     
  1157.89        500.000        2642.12     
  1155.39        500.000        2642.24     
  1152.88        500.000        2642.35     
  1150.38        500.000        2642.46     
  1147.87        500.000        2642.55     
  1145.36        500.000        2642.69     
  1142.86        500.000        2642.78     
  1140.35        500.000        2642.91     
  1137.84        500.000        2643.05     
  1135.34        500.000        2643.14     
  1132.83        500.000        2643.27     
  1130.33        500.000        2643.37     
  1127.82        500.000        2643.49     
  1125.31        500.000        2643.60     
  1122.81        500.000        2643.70     
  1120.30        500.000        2643.77     
  1117.79        500.000        2643.91     
  1115.29        500.000        2644.05     
  1112.78        500.000        2644.16     
  1110.28        500.000        2641.90     
  1107.77        500.000        2641.62     
  1105.26        500.000        2641.71     
  1102.76        500.000        2641.70     
  1100.25        500.000        2641.62     
  1097.74        500.000        2641.42     
  1095.24        500.000        2641.68     
  1092.73        500.000        2641.74     
  1090.23        500.000        2641.78     
  1087.72        500.000        2641.86     
  1085.21        500.000        2641.85     
  1082.71        500.000        2641.91     
  1080.20        500.000        2641.95     
  1077.69        500.000        2642.00     
  1075.19        500.000        2642.06     
  1072.68        500.000        2642.12     
  1070.18        500.000        2642.19     
  1067.67        500.000        2642.25     
  1065.16        500.000        2642.32     
  1062.66        500.000        2642.50     
  1060.15        500.000        2642.45     
  1057.64        500.000        2642.52     
  1055.14        500.000        2642.59     
  1052.63        500.000        2642.66     
  1050.13        500.000        2642.74     
  1047.62        500.000        2642.81     
  1045.11        500.000        2642.89     
  1042.61        500.000        2642.97     
  1040.10        500.000        2643.05     
  1037.59        500.000        2643.12     
  1035.09        500.000        2643.21     
  1032.58        500.000        2643.29     
  1030.08        500.000        2643.37     
  1027.57        500.000        2643.45     
  1025.06        500.000        2643.53     
  1022.56        500.000        2643.61     
  1020.05        500.000        2643.70     
  1017.54        500.000        2643.78     
  1015.04        500.000        2643.87     
  1012.53        500.000        2643.95     
  1010.03        500.000        2644.03     
  1007.52        500.000        2644.12     
  1005.01        500.000        2644.20     
  1002.51        500.000        2644.29     
  1000.00        500.000        2644.38     
