|6.6.6
Archiving\03_Data\DfracLP/QFM_m2.75/YM20/YM20_6.tab                     
           1
T(K)    
  0.000000000000000E+000
  0.000000000000000E+000
           0
           3
T(K)           P(bar)         rho,kg/m3     
  2000.00        500.000        8099.88     
  1997.49        500.000        8101.32     
  1994.99        500.000        8102.75     
  1992.48        500.000        8104.18     
  1989.97        500.000        8105.61     
  1987.47        500.000        8107.04     
  1984.96        500.000        8108.47     
  1982.46        500.000        8109.90     
  1979.95        500.000        8111.32     
  1977.44        500.000        8112.75     
  1974.94        500.000        8114.18     
  1972.43        500.000        8115.60     
  1969.92        500.000        8117.02     
  1967.42        500.000        8118.44     
  1964.91        500.000        8119.87     
  1962.41        500.000        8121.29     
  1959.90        500.000        8122.71     
  1957.39        500.000        8124.12     
  1954.89        500.000        8125.54     
  1952.38        500.000        8126.96     
  1949.87        500.000        8128.38     
  1947.37        500.000        8129.79     
  1944.86        500.000        8131.20     
  1942.36        500.000        8132.62     
  1939.85        500.000        8134.03     
  1937.34        500.000        8135.44     
  1934.84        500.000        8136.85     
  1932.33        500.000        8138.26     
  1929.82        500.000        8139.67     
  1927.32        500.000        8141.08     
  1924.81        500.000        8142.48     
  1922.31        500.000        8143.89     
  1919.80        500.000        8145.30     
  1917.29        500.000        3341.24     
  1914.79        500.000        3149.29     
  1912.28        500.000        3145.24     
  1909.77        500.000        3141.86     
  1907.27        500.000        3143.50     
  1904.76        500.000        3144.49     
  1902.26        500.000        3146.02     
  1899.75        500.000        3147.72     
  1897.24        500.000        3149.18     
  1894.74        500.000        3151.13     
  1892.23        500.000        3152.30     
  1889.72        500.000        3153.68     
  1887.22        500.000        3153.15     
  1884.71        500.000        3169.26     
  1882.21        500.000        3180.48     
  1879.70        500.000        3182.27     
  1877.19        500.000        3183.69     
  1874.69        500.000        3185.48     
  1872.18        500.000        3186.52     
  1869.67        500.000        3188.62     
  1867.17        500.000        3190.98     
  1864.66        500.000        3192.01     
  1862.16        500.000        3193.20     
  1859.65        500.000        3195.35     
  1857.14        500.000        3196.66     
  1854.64        500.000        3197.86     
  1852.13        500.000        3199.31     
  1849.62        500.000        3201.21     
  1847.12        500.000        3203.29     
  1844.61        500.000        3204.29     
  1842.11        500.000        3207.13     
  1839.60        500.000        3208.31     
  1837.09        500.000        3210.34     
  1834.59        500.000        3211.52     
  1832.08        500.000        3214.20     
  1829.57        500.000        3215.10     
  1827.07        500.000        3216.67     
  1824.56        500.000        3218.31     
  1822.06        500.000        3219.71     
  1819.55        500.000        3221.55     
  1817.04        500.000        3223.25     
  1814.54        500.000        3225.50     
  1812.03        500.000        3227.46     
  1809.52        500.000        3228.34     
  1807.02        500.000        3230.47     
  1804.51        500.000        3231.97     
  1802.01        500.000        3233.43     
  1799.50        500.000        3235.06     
  1796.99        500.000        3236.49     
  1794.49        500.000        3238.83     
  1791.98        500.000        3240.08     
  1789.47        500.000        3242.07     
  1786.97        500.000        3243.07     
  1784.46        500.000        3244.91     
  1781.95        500.000        3246.42     
  1779.45        500.000        3248.27     
  1776.94        500.000        3249.38     
  1774.44        500.000        3251.44     
  1771.93        500.000        3253.54     
  1769.42        500.000        3254.52     
  1766.92        500.000        3256.88     
  1764.41        500.000        3258.75     
  1761.90        500.000        3260.01     
  1759.40        500.000        3261.29     
  1756.89        500.000        3263.02     
  1754.39        500.000        3264.33     
  1751.88        500.000        3266.57     
  1749.37        500.000        3268.63     
  1746.87        500.000        3270.38     
  1744.36        500.000        3270.80     
  1741.85        500.000        3274.08     
  1739.35        500.000        3275.15     
  1736.84        500.000        3276.71     
  1734.34        500.000        3278.53     
  1731.83        500.000        3280.19     
  1729.32        500.000        3281.44     
  1726.82        500.000        3283.70     
  1724.31        500.000        3285.78     
  1721.80        500.000        3286.37     
  1719.30        500.000        3288.72     
  1716.79        500.000        3289.58     
  1714.29        500.000        3291.17     
  1711.78        500.000        3293.22     
  1709.27        500.000        3295.18     
  1706.77        500.000        3296.30     
  1704.26        500.000        3297.85     
  1701.75        500.000        3300.59     
  1699.25        500.000        3300.30     
  1696.74        500.000        3303.09     
  1694.24        500.000        3304.12     
  1691.73        500.000        3306.21     
  1689.22        500.000        3307.40     
  1686.72        500.000        3309.03     
  1684.21        500.000        3310.30     
  1681.70        500.000        3312.57     
  1679.20        500.000        3313.89     
  1676.69        500.000        3316.11     
  1674.19        500.000        3317.66     
  1671.68        500.000        3318.45     
  1669.17        500.000        3319.83     
  1666.67        500.000        3321.80     
  1664.16        500.000        3323.37     
  1661.65        500.000        3324.19     
  1659.15        500.000        3325.49     
  1656.64        500.000        3326.83     
  1654.14        500.000        3330.28     
  1651.63        500.000        3329.77     
  1649.12        500.000        3331.84     
  1646.62        500.000        3333.90     
  1644.11        500.000        3334.76     
  1641.60        500.000        3337.10     
  1639.10        500.000        3338.16     
  1636.59        500.000        3339.90     
  1634.09        500.000        3340.93     
  1631.58        500.000        3343.02     
  1629.07        500.000        3344.32     
  1626.57        500.000        3346.41     
  1624.06        500.000        3348.41     
  1621.55        500.000        3348.66     
  1619.05        500.000        3350.56     
  1616.54        500.000        3351.13     
  1614.04        500.000        3353.21     
  1611.53        500.000        3353.37     
  1609.02        500.000        3270.17     
  1606.52        500.000        3247.62     
  1604.01        500.000        3246.88     
  1601.50        500.000        3248.28     
  1599.00        500.000        3248.72     
  1596.49        500.000        3249.33     
  1593.98        500.000        3250.43     
  1591.48        500.000        3251.56     
  1588.97        500.000        3252.30     
  1586.47        500.000        3253.36     
  1583.96        500.000        3257.20     
  1581.45        500.000        3255.14     
  1578.95        500.000        3256.22     
  1576.44        500.000        3257.09     
  1573.93        500.000        3257.45     
  1571.43        500.000        3258.06     
  1568.92        500.000        3259.02     
  1566.42        500.000        3260.04     
  1563.91        500.000        3261.80     
  1561.40        500.000        3261.99     
  1558.90        500.000        3262.93     
  1556.39        500.000        3264.30     
  1553.88        500.000        3264.95     
  1551.38        500.000        3265.82     
  1548.87        500.000        3266.03     
  1546.37        500.000        3266.99     
  1543.86        500.000        3267.52     
  1541.35        500.000        3269.30     
  1538.85        500.000        3267.51     
  1536.34        500.000        3269.50     
  1533.83        500.000        3272.15     
  1531.33        500.000        3270.67     
  1528.82        500.000        3272.23     
  1526.32        500.000        3273.35     
  1523.81        500.000        3274.50     
  1521.30        500.000        3274.51     
  1518.80        500.000        3275.74     
  1516.29        500.000        3276.13     
  1513.78        500.000        3277.81     
  1511.28        500.000        3277.64     
  1508.77        500.000        3280.03     
  1506.27        500.000        3280.13     
  1503.76        500.000        3281.72     
  1501.25        500.000        3282.83     
  1498.75        500.000        3283.68     
  1496.24        500.000        3284.40     
  1493.73        500.000        3286.10     
  1491.23        500.000        3284.03     
  1488.72        500.000        3277.99     
  1486.22        500.000        3279.41     
  1483.71        500.000        3280.98     
  1481.20        500.000        3282.51     
  1478.70        500.000        3283.48     
  1476.19        500.000        3285.87     
  1473.68        500.000        3287.36     
  1471.18        500.000        3288.52     
  1468.67        500.000        3290.32     
  1466.17        500.000        3292.00     
  1463.66        500.000        3293.39     
  1461.15        500.000        3295.06     
  1458.65        500.000        3296.50     
  1456.14        500.000        3287.08     
  1453.63        500.000        3276.77     
  1451.13        500.000        3279.16     
  1448.62        500.000        3281.22     
  1446.12        500.000        3283.63     
  1443.61        500.000        3285.82     
  1441.10        500.000        3288.42     
  1438.60        500.000        3290.17     
  1436.09        500.000        3171.10     
  1433.58        500.000        3111.18     
  1431.08        500.000        3114.35     
  1428.57        500.000        3117.56     
  1426.07        500.000        3120.79     
  1423.56        500.000        3124.07     
  1421.05        500.000        3127.08     
  1418.55        500.000        3130.37     
  1416.04        500.000        3133.65     
  1413.53        500.000        3136.69     
  1411.03        500.000        3139.91     
  1408.52        500.000        3143.09     
  1406.02        500.000        3146.35     
  1403.51        500.000        3149.45     
  1401.00        500.000        3152.80     
  1398.50        500.000        3155.92     
  1395.99        500.000        3159.23     
  1393.48        500.000        3162.46     
  1390.98        500.000        3165.37     
  1388.47        500.000        3168.86     
  1385.96        500.000        3172.20     
  1383.46        500.000        3175.70     
  1380.95        500.000        3199.30     
  1378.45        500.000        3207.60     
  1375.94        500.000        3211.84     
  1373.43        500.000        3216.38     
  1370.93        500.000        3220.88     
  1368.42        500.000        3225.33     
  1365.91        500.000        3229.83     
  1363.41        500.000        3232.18     
  1360.90        500.000        3237.37     
  1358.40        500.000        3240.93     
  1355.89        500.000        3244.53     
  1353.38        500.000        3248.27     
  1350.88        500.000        3251.80     
  1348.37        500.000        3255.36     
  1345.86        500.000        3259.03     
  1343.36        500.000        3261.53     
  1340.85        500.000        3266.39     
  1338.35        500.000        3259.07     
  1335.84        500.000        3296.68     
  1333.33        500.000        3276.88     
  1330.83        500.000        3279.73     
  1328.32        500.000        3283.64     
  1325.81        500.000        3286.63     
  1323.31        500.000        3289.76     
  1320.80        500.000        3292.77     
  1318.30        500.000        3296.18     
  1315.79        500.000        3299.06     
  1313.28        500.000        3300.38     
  1310.78        500.000        3306.37     
  1308.27        500.000        3307.82     
  1305.76        500.000        3310.55     
  1303.26        500.000        3313.57     
  1300.75        500.000        3315.69     
  1298.25        500.000        3313.18     
  1295.74        500.000        3353.13     
  1293.23        500.000        3322.19     
  1290.73        500.000        3325.20     
  1288.22        500.000        3326.51     
  1285.71        500.000        3328.70     
  1283.21        500.000        3330.34     
  1280.70        500.000        3332.66     
  1278.20        500.000        3334.22     
  1275.69        500.000        3335.17     
  1273.18        500.000        3336.70     
  1270.68        500.000        3335.89     
  1268.17        500.000        3339.47     
  1265.66        500.000        2892.48     
  1263.16        500.000        2836.79     
  1260.65        500.000        2837.89     
  1258.15        500.000        2844.33     
  1255.64        500.000        2853.09     
  1253.13        500.000        2859.50     
  1250.63        500.000        2861.63     
  1248.12        500.000        2863.14     
  1245.61        500.000        2864.86     
  1243.11        500.000        2866.47     
  1240.60        500.000        2867.60     
  1238.10        500.000        2868.96     
  1235.59        500.000        2870.15     
  1233.08        500.000        2870.77     
  1230.58        500.000        2871.50     
  1228.07        500.000        2871.35     
  1225.56        500.000        2871.68     
  1223.06        500.000        2872.42     
  1220.55        500.000        2871.53     
  1218.05        500.000        2871.21     
  1215.54        500.000        2870.41     
  1213.03        500.000        2867.70     
  1210.53        500.000        2682.69     
  1208.02        500.000        2689.08     
  1205.51        500.000        2676.25     
  1203.01        500.000        2687.08     
  1200.50        500.000        2684.91     
  1197.99        500.000        2673.82     
  1195.49        500.000        2668.79     
  1192.98        500.000        2652.39     
  1190.48        500.000        2642.86     
  1187.97        500.000        2635.36     
  1185.46        500.000        2633.56     
  1182.96        500.000        2635.64     
  1180.45        500.000        2633.64     
  1177.94        500.000        2633.68     
  1175.44        500.000        2633.72     
  1172.93        500.000        2636.00     
  1170.43        500.000        2636.13     
  1167.92        500.000        2636.19     
  1165.41        500.000        2636.33     
  1162.91        500.000        2636.44     
  1160.40        500.000        2636.55     
  1157.89        500.000        2636.77     
  1155.39        500.000        2636.77     
  1152.88        500.000        2636.88     
  1150.38        500.000        2634.24     
  1147.87        500.000        2634.30     
  1145.36        500.000        2634.36     
  1142.86        500.000        2634.43     
  1140.35        500.000        2634.49     
  1137.84        500.000        2634.56     
  1135.34        500.000        2634.63     
  1132.83        500.000        2634.69     
  1130.33        500.000        2634.76     
  1127.82        500.000        2634.83     
  1125.31        500.000        2634.96     
  1122.81        500.000        2634.97     
  1120.30        500.000        2635.04     
  1117.79        500.000        2635.12     
  1115.29        500.000        2635.19     
  1112.78        500.000        2635.27     
  1110.28        500.000        2638.85     
  1107.77        500.000        2638.65     
  1105.26        500.000        2635.49     
  1102.76        500.000        2635.59     
  1100.25        500.000        2636.94     
  1097.74        500.000        2636.95     
  1095.24        500.000        2636.91     
  1092.73        500.000        2636.85     
  1090.23        500.000        2636.88     
  1087.72        500.000        2636.38     
  1085.21        500.000        2636.97     
  1082.71        500.000        2636.25     
  1080.20        500.000        2636.33     
  1077.69        500.000        2636.38     
  1075.19        500.000        2636.46     
  1072.68        500.000        2636.54     
  1070.18        500.000        2636.62     
  1067.67        500.000        2636.71     
  1065.16        500.000        2636.79     
  1062.66        500.000        2636.88     
  1060.15        500.000        2636.96     
  1057.64        500.000        2637.05     
  1055.14        500.000        2637.13     
  1052.63        500.000        2637.22     
  1050.13        500.000        2637.30     
  1047.62        500.000        2637.39     
  1045.11        500.000        2637.48     
  1042.61        500.000        2637.56     
  1040.10        500.000        2637.68     
  1037.59        500.000        2637.77     
  1035.09        500.000        2637.83     
  1032.58        500.000        2637.91     
  1030.08        500.000        2638.00     
  1027.57        500.000        2638.09     
  1025.06        500.000        2638.18     
  1022.56        500.000        2638.27     
  1020.05        500.000        2638.35     
  1017.54        500.000        2638.44     
  1015.04        500.000        2638.53     
  1012.53        500.000        2638.62     
  1010.03        500.000        2638.71     
  1007.52        500.000        2638.80     
  1005.01        500.000        2638.89     
  1002.51        500.000        2639.01     
  1000.00        500.000        2639.14     
