|6.6.6
Archiving\03_Data\DfracLP/QFM_m1.75/K22/K22_6.tab                     
           1
T(K)    
  0.000000000000000E+000
  0.000000000000000E+000
           0
           3
T(K)           P(bar)         rho,kg/m3     
  2000.00        500.000        8099.88     
  1997.49        500.000        8101.32     
  1994.99        500.000        8102.75     
  1992.48        500.000        8104.18     
  1989.97        500.000        8105.61     
  1987.47        500.000        8107.04     
  1984.96        500.000        8108.47     
  1982.46        500.000        8109.90     
  1979.95        500.000        8111.32     
  1977.44        500.000        8112.75     
  1974.94        500.000        8114.18     
  1972.43        500.000        8115.60     
  1969.92        500.000        8117.02     
  1967.42        500.000        8118.44     
  1964.91        500.000        8119.87     
  1962.41        500.000        5328.80     
  1959.90        500.000        2897.90     
  1957.39        500.000        2898.51     
  1954.89        500.000        2899.07     
  1952.38        500.000        2899.66     
  1949.87        500.000        2900.25     
  1947.37        500.000        2900.83     
  1944.86        500.000        2901.42     
  1942.36        500.000        2902.00     
  1939.85        500.000        3118.01     
  1937.34        500.000        3118.69     
  1934.84        500.000        3120.72     
  1932.33        500.000        3121.88     
  1929.82        500.000        3123.40     
  1927.32        500.000        3124.36     
  1924.81        500.000        3126.35     
  1922.31        500.000        3128.09     
  1919.80        500.000        3129.18     
  1917.29        500.000        3129.99     
  1914.79        500.000        3132.30     
  1912.28        500.000        3133.19     
  1909.77        500.000        3134.54     
  1907.27        500.000        3136.22     
  1904.76        500.000        3137.81     
  1902.26        500.000        3139.30     
  1899.75        500.000        3158.48     
  1897.24        500.000        3163.53     
  1894.74        500.000        3165.61     
  1892.23        500.000        3167.79     
  1889.72        500.000        3168.55     
  1887.22        500.000        3170.32     
  1884.71        500.000        3171.79     
  1882.21        500.000        3173.56     
  1879.70        500.000        3174.83     
  1877.19        500.000        3175.92     
  1874.69        500.000        3177.40     
  1872.18        500.000        3179.54     
  1869.67        500.000        3181.23     
  1867.17        500.000        3183.04     
  1864.66        500.000        3184.54     
  1862.16        500.000        3186.36     
  1859.65        500.000        3187.74     
  1857.14        500.000        3184.04     
  1854.64        500.000        3190.71     
  1852.13        500.000        3192.15     
  1849.62        500.000        3192.08     
  1847.12        500.000        3200.07     
  1844.61        500.000        3196.82     
  1842.11        500.000        3198.17     
  1839.60        500.000        3200.24     
  1837.09        500.000        3201.77     
  1834.59        500.000        3204.43     
  1832.08        500.000        3205.37     
  1829.57        500.000        3205.78     
  1827.07        500.000        3208.83     
  1824.56        500.000        3209.80     
  1822.06        500.000        3211.64     
  1819.55        500.000        3215.73     
  1817.04        500.000        3212.55     
  1814.54        500.000        3216.93     
  1812.03        500.000        3218.02     
  1809.52        500.000        3219.46     
  1807.02        500.000        3220.88     
  1804.51        500.000        3222.55     
  1802.01        500.000        3224.54     
  1799.50        500.000        3206.43     
  1796.99        500.000        3227.37     
  1794.49        500.000        3229.28     
  1791.98        500.000        3230.72     
  1789.47        500.000        3232.24     
  1786.97        500.000        3233.93     
  1784.46        500.000        3235.51     
  1781.95        500.000        3237.48     
  1779.45        500.000        3238.68     
  1776.94        500.000        3240.22     
  1774.44        500.000        3242.56     
  1771.93        500.000        3244.37     
  1769.42        500.000        3244.99     
  1766.92        500.000        3247.33     
  1764.41        500.000        3248.62     
  1761.90        500.000        3249.79     
  1759.40        500.000        3251.29     
  1756.89        500.000        3253.48     
  1754.39        500.000        3254.61     
  1751.88        500.000        3256.14     
  1749.37        500.000        3257.46     
  1746.87        500.000        3258.71     
  1744.36        500.000        3261.04     
  1741.85        500.000        3263.61     
  1739.35        500.000        3264.24     
  1736.84        500.000        3265.55     
  1734.34        500.000        3266.82     
  1731.83        500.000        3268.52     
  1729.32        500.000        3270.85     
  1726.82        500.000        3272.02     
  1724.31        500.000        3273.56     
  1721.80        500.000        3275.12     
  1719.30        500.000        3277.66     
  1716.79        500.000        3278.84     
  1714.29        500.000        3280.33     
  1711.78        500.000        3282.30     
  1709.27        500.000        3282.97     
  1706.77        500.000        3284.87     
  1704.26        500.000        3287.11     
  1701.75        500.000        3287.55     
  1699.25        500.000        3289.45     
  1696.74        500.000        3291.03     
  1694.24        500.000        3291.90     
  1691.73        500.000        3294.67     
  1689.22        500.000        3294.59     
  1686.72        500.000        3297.16     
  1684.21        500.000        3298.76     
  1681.70        500.000        3301.09     
  1679.20        500.000        3301.86     
  1676.69        500.000        3303.10     
  1674.19        500.000        3305.39     
  1671.68        500.000        3306.13     
  1669.17        500.000        3307.84     
  1666.67        500.000        3310.18     
  1664.16        500.000        3310.08     
  1661.65        500.000        3312.38     
  1659.15        500.000        3313.07     
  1656.64        500.000        3315.10     
  1654.14        500.000        3316.34     
  1651.63        500.000        3316.43     
  1649.12        500.000        3320.38     
  1646.62        500.000        3320.61     
  1644.11        500.000        3322.46     
  1641.60        500.000        3323.83     
  1639.10        500.000        3325.00     
  1636.59        500.000        3326.85     
  1634.09        500.000        3327.73     
  1631.58        500.000        3330.74     
  1629.07        500.000        3330.99     
  1626.57        500.000        3330.85     
  1624.06        500.000        3333.36     
  1621.55        500.000        3335.45     
  1619.05        500.000        3336.26     
  1616.54        500.000        3337.74     
  1614.04        500.000        3339.64     
  1611.53        500.000        3241.76     
  1609.02        500.000        3237.19     
  1606.52        500.000        3236.70     
  1604.01        500.000        3237.17     
  1601.50        500.000        3238.23     
  1599.00        500.000        3239.71     
  1596.49        500.000        3240.28     
  1593.98        500.000        3241.27     
  1591.48        500.000        3242.00     
  1588.97        500.000        3243.02     
  1586.47        500.000        3243.60     
  1583.96        500.000        3244.57     
  1581.45        500.000        3245.57     
  1578.95        500.000        3246.47     
  1576.44        500.000        3247.24     
  1573.93        500.000        3248.49     
  1571.43        500.000        3248.51     
  1568.92        500.000        3250.28     
  1566.42        500.000        3250.98     
  1563.91        500.000        3251.25     
  1561.40        500.000        3251.96     
  1558.90        500.000        3252.58     
  1556.39        500.000        3253.92     
  1553.88        500.000        3255.75     
  1551.38        500.000        3255.74     
  1548.87        500.000        3257.05     
  1546.37        500.000        3257.10     
  1543.86        500.000        3258.43     
  1541.35        500.000        3258.06     
  1538.85        500.000        3259.05     
  1536.34        500.000        3260.44     
  1533.83        500.000        3260.85     
  1531.33        500.000        3262.11     
  1528.82        500.000        3263.00     
  1526.32        500.000        3267.00     
  1523.81        500.000        3267.10     
  1521.30        500.000        3266.00     
  1518.80        500.000        3270.89     
  1516.29        500.000        3274.46     
  1513.78        500.000        3269.29     
  1511.28        500.000        3270.21     
  1508.77        500.000        3270.19     
  1506.27        500.000        3271.83     
  1503.76        500.000        3273.25     
  1501.25        500.000        3274.41     
  1498.75        500.000        3275.67     
  1496.24        500.000        3276.94     
  1493.73        500.000        3278.35     
  1491.23        500.000        3278.93     
  1488.72        500.000        3277.58     
  1486.22        500.000        3265.77     
  1483.71        500.000        3266.45     
  1481.20        500.000        3267.54     
  1478.70        500.000        3269.74     
  1476.19        500.000        3271.19     
  1473.68        500.000        3271.98     
  1471.18        500.000        3273.53     
  1468.67        500.000        3275.47     
  1466.17        500.000        3277.25     
  1463.66        500.000        3277.79     
  1461.15        500.000        3273.54     
  1458.65        500.000        3262.23     
  1456.14        500.000        3264.58     
  1453.63        500.000        3266.48     
  1451.13        500.000        3268.99     
  1448.62        500.000        3270.92     
  1446.12        500.000        3273.03     
  1443.61        500.000        3275.13     
  1441.10        500.000        3277.25     
  1438.60        500.000        3279.45     
  1436.09        500.000        3281.26     
  1433.58        500.000        3283.89     
  1431.08        500.000        3285.95     
  1428.57        500.000        3288.10     
  1426.07        500.000        3290.52     
  1423.56        500.000        3126.98     
  1421.05        500.000        3113.41     
  1418.55        500.000        3115.99     
  1416.04        500.000        3118.65     
  1413.53        500.000        3120.85     
  1411.03        500.000        3124.05     
  1408.52        500.000        3126.87     
  1406.02        500.000        3129.45     
  1403.51        500.000        3133.01     
  1401.00        500.000        3134.92     
  1398.50        500.000        3137.29     
  1395.99        500.000        3140.02     
  1393.48        500.000        3142.59     
  1390.98        500.000        3145.40     
  1388.47        500.000        3147.90     
  1385.96        500.000        3150.61     
  1383.46        500.000        3153.28     
  1380.95        500.000        3155.82     
  1378.45        500.000        3158.82     
  1375.94        500.000        3161.46     
  1373.43        500.000        3164.04     
  1370.93        500.000        3166.75     
  1368.42        500.000        3169.25     
  1365.91        500.000        3172.07     
  1363.41        500.000        3174.88     
  1360.90        500.000        3177.41     
  1358.40        500.000        3205.26     
  1355.89        500.000        3221.23     
  1353.38        500.000        3218.24     
  1350.88        500.000        3222.74     
  1348.37        500.000        3226.63     
  1345.86        500.000        3230.10     
  1343.36        500.000        3233.98     
  1340.85        500.000        3237.64     
  1338.35        500.000        3241.20     
  1335.84        500.000        3244.75     
  1333.33        500.000        3248.24     
  1330.83        500.000        3251.55     
  1328.32        500.000        3254.91     
  1325.81        500.000        3258.02     
  1323.31        500.000        3261.23     
  1320.80        500.000        3264.25     
  1318.30        500.000        3267.06     
  1315.79        500.000        3269.84     
  1313.28        500.000        3271.69     
  1310.78        500.000        3275.73     
  1308.27        500.000        3277.39     
  1305.76        500.000        3279.33     
  1303.26        500.000        3281.57     
  1300.75        500.000        3283.44     
  1298.25        500.000        3285.09     
  1295.74        500.000        3282.18     
  1293.23        500.000        3292.55     
  1290.73        500.000        3289.46     
  1288.22        500.000        3290.16     
  1285.71        500.000        3290.86     
  1283.21        500.000        3291.25     
  1280.70        500.000        3291.76     
  1278.20        500.000        3292.15     
  1275.69        500.000        3292.08     
  1273.18        500.000        3291.85     
  1270.68        500.000        3291.61     
  1268.17        500.000        3290.86     
  1265.66        500.000        3290.12     
  1263.16        500.000        3289.18     
  1260.65        500.000        3287.89     
  1258.15        500.000        3286.54     
  1255.64        500.000        2801.33     
  1253.13        500.000        2796.01     
  1250.63        500.000        2797.67     
  1248.12        500.000        2799.07     
  1245.61        500.000        2800.68     
  1243.11        500.000        2801.55     
  1240.60        500.000        2802.76     
  1238.10        500.000        2811.39     
  1235.59        500.000        2811.12     
  1233.08        500.000        2810.86     
  1230.58        500.000        2810.52     
  1228.07        500.000        2810.34     
  1225.56        500.000        2810.60     
  1223.06        500.000        2810.43     
  1220.55        500.000        2810.49     
  1218.05        500.000        2810.51     
  1215.54        500.000        2810.15     
  1213.03        500.000        2810.80     
  1210.53        500.000        2809.90     
  1208.02        500.000        2809.36     
  1205.51        500.000        2809.10     
  1203.01        500.000        2812.74     
  1200.50        500.000        2502.18     
  1197.99        500.000        2860.68     
  1195.49        500.000        2759.84     
  1192.98        500.000        2894.13     
  1190.48        500.000        2862.87     
  1187.97        500.000        2635.15     
  1185.46        500.000        2633.79     
  1182.96        500.000        2633.90     
  1180.45        500.000        2634.09     
  1177.94        500.000        2630.78     
  1175.44        500.000        2634.16     
  1172.93        500.000        2634.34     
  1170.43        500.000        2631.03     
  1167.92        500.000        2631.12     
  1165.41        500.000        2631.20     
  1162.91        500.000        2631.28     
  1160.40        500.000        2631.37     
  1157.89        500.000        2631.46     
  1155.39        500.000        2631.55     
  1152.88        500.000        2631.64     
  1150.38        500.000        2631.72     
  1147.87        500.000        2631.81     
  1145.36        500.000        2631.90     
  1142.86        500.000        2631.99     
  1140.35        500.000        2632.08     
  1137.84        500.000        2632.17     
  1135.34        500.000        2632.26     
  1132.83        500.000        2632.35     
  1130.33        500.000        2632.44     
  1127.82        500.000        2632.53     
  1125.31        500.000        2632.35     
  1122.81        500.000        2632.42     
  1120.30        500.000        2632.79     
  1117.79        500.000        2632.90     
  1115.29        500.000        2632.94     
  1112.78        500.000        2632.68     
  1110.28        500.000        2632.57     
  1107.77        500.000        2632.83     
  1105.26        500.000        2633.18     
  1102.76        500.000        2633.25     
  1100.25        500.000        2633.08     
  1097.74        500.000        2633.41     
  1095.24        500.000        2633.49     
  1092.73        500.000        2633.19     
  1090.23        500.000        2633.61     
  1087.72        500.000        2633.68     
  1085.21        500.000        2633.53     
  1082.71        500.000        2633.84     
  1080.20        500.000        2633.69     
  1077.69        500.000        2633.76     
  1075.19        500.000        2633.85     
  1072.68        500.000        2633.94     
  1070.18        500.000        2634.04     
  1067.67        500.000        2634.11     
  1065.16        500.000        2634.21     
  1062.66        500.000        2634.30     
  1060.15        500.000        2634.39     
  1057.64        500.000        2634.48     
  1055.14        500.000        2634.57     
  1052.63        500.000        2634.66     
  1050.13        500.000        2634.75     
  1047.62        500.000        2634.84     
  1045.11        500.000        2634.93     
  1042.61        500.000        2635.02     
  1040.10        500.000        2635.11     
  1037.59        500.000        2635.20     
  1035.09        500.000        2635.29     
  1032.58        500.000        2635.39     
  1030.08        500.000        2635.48     
  1027.57        500.000        2635.57     
  1025.06        500.000        2635.66     
  1022.56        500.000        2635.75     
  1020.05        500.000        2635.84     
  1017.54        500.000        2635.93     
  1015.04        500.000        2636.02     
  1012.53        500.000        2636.12     
  1010.03        500.000        2636.21     
  1007.52        500.000        2636.30     
  1005.01        500.000        2636.39     
  1002.51        500.000        2636.48     
  1000.00        500.000        2636.58     
