|6.6.6
Archiving\03_Data\Deq/QFM_m2.25/YM20/YM20_6.tab                         
           1
T(K)    
  0.000000000000000E+000
  0.000000000000000E+000
           0
           3
T(K)           P(bar)         rho,kg/m3     
  2000.00        2500.00        8112.42     
  1996.79        2500.00        8114.24     
  1993.59        2500.00        8116.06     
  1990.38        2500.00        8117.88     
  1987.18        2500.00        8119.70     
  1983.97        2500.00        8121.52     
  1980.77        2500.00        8123.33     
  1977.56        2500.00        8125.14     
  1974.36        2500.00        8126.96     
  1971.15        2500.00        8128.77     
  1967.95        2500.00        8130.57     
  1964.74        2500.00        8132.38     
  1961.54        2500.00        8134.19     
  1958.33        2500.00        8135.99     
  1955.13        2500.00        8137.79     
  1951.92        2500.00        8139.60     
  1948.72        2500.00        8141.40     
  1945.51        2500.00        8143.19     
  1942.31        2500.00        8144.99     
  1939.10        2500.00        8146.79     
  1935.90        2500.00        8148.58     
  1932.69        2500.00        3247.91     
  1929.49        2500.00        3191.61     
  1926.28        2500.00        3177.30     
  1923.08        2500.00        3174.75     
  1919.87        2500.00        3172.94     
  1916.67        2500.00        3171.69     
  1913.46        2500.00        3170.40     
  1910.26        2500.00        3170.38     
  1907.05        2500.00        3172.70     
  1903.85        2500.00        3174.64     
  1900.64        2500.00        3176.30     
  1897.44        2500.00        3177.75     
  1894.23        2500.00        3181.11     
  1891.03        2500.00        3184.03     
  1887.82        2500.00        3186.59     
  1884.62        2500.00        3188.87     
  1881.41        2500.00        3190.92     
  1878.21        2500.00        3192.79     
  1875.00        2500.00        3194.49     
  1871.79        2500.00        3196.07     
  1868.59        2500.00        3198.54     
  1865.38        2500.00        3200.83     
  1862.18        2500.00        3202.95     
  1858.97        2500.00        3204.94     
  1855.77        2500.00        3206.80     
  1852.56        2500.00        3208.55     
  1849.36        2500.00        3210.21     
  1846.15        2500.00        3211.78     
  1842.95        2500.00        3214.04     
  1839.74        2500.00        3216.19     
  1836.54        2500.00        3218.24     
  1833.33        2500.00        3220.18     
  1830.13        2500.00        3222.05     
  1826.92        2500.00        3223.83     
  1823.72        2500.00        3225.54     
  1820.51        2500.00        3227.18     
  1817.31        2500.00        3229.25     
  1814.10        2500.00        3231.25     
  1810.90        2500.00        3233.17     
  1807.69        2500.00        3235.03     
  1804.49        2500.00        3236.82     
  1801.28        2500.00        3238.55     
  1798.08        2500.00        3240.23     
  1794.87        2500.00        3241.85     
  1791.67        2500.00        3243.76     
  1788.46        2500.00        3245.62     
  1785.26        2500.00        3247.42     
  1782.05        2500.00        3249.17     
  1778.85        2500.00        3250.87     
  1775.64        2500.00        3252.52     
  1772.44        2500.00        3254.14     
  1769.23        2500.00        3255.71     
  1766.03        2500.00        3257.44     
  1762.82        2500.00        3259.13     
  1759.62        2500.00        3260.78     
  1756.41        2500.00        3262.39     
  1753.21        2500.00        3263.96     
  1750.00        2500.00        3265.50     
  1746.79        2500.00        3267.01     
  1743.59        2500.00        3268.49     
  1740.38        2500.00        3270.05     
  1737.18        2500.00        3271.58     
  1733.97        2500.00        3273.09     
  1730.77        2500.00        3274.56     
  1727.56        2500.00        3276.01     
  1724.36        2500.00        3277.44     
  1721.15        2500.00        3278.83     
  1717.95        2500.00        3280.21     
  1714.74        2500.00        3281.57     
  1711.54        2500.00        3282.92     
  1708.33        2500.00        3284.24     
  1705.13        2500.00        3285.54     
  1701.92        2500.00        3286.82     
  1698.72        2500.00        3288.09     
  1695.51        2500.00        3289.33     
  1692.31        2500.00        3290.56     
  1689.10        2500.00        3291.76     
  1685.90        2500.00        3292.94     
  1682.69        2500.00        3294.11     
  1679.49        2500.00        3295.26     
  1676.28        2500.00        3296.40     
  1673.08        2500.00        3297.52     
  1669.87        2500.00        3298.64     
  1666.67        2500.00        3299.73     
  1663.46        2500.00        3300.78     
  1660.26        2500.00        3301.81     
  1657.05        2500.00        3302.87     
  1653.85        2500.00        3302.42     
  1650.64        2500.00        3301.27     
  1647.44        2500.00        3300.20     
  1644.23        2500.00        3299.20     
  1641.03        2500.00        3298.27     
  1637.82        2500.00        3297.80     
  1634.62        2500.00        3297.36     
  1631.41        2500.00        3296.95     
  1628.21        2500.00        3296.57     
  1625.00        2500.00        3296.22     
  1621.79        2500.00        3295.89     
  1618.59        2500.00        3295.59     
  1615.38        2500.00        3295.31     
  1612.18        2500.00        3295.31     
  1608.97        2500.00        3295.32     
  1605.77        2500.00        3295.34     
  1602.56        2500.00        3295.37     
  1599.36        2500.00        3295.40     
  1596.15        2500.00        3295.45     
  1592.95        2500.00        3295.51     
  1589.74        2500.00        3295.57     
  1586.54        2500.00        3295.76     
  1583.33        2500.00        3295.95     
  1580.13        2500.00        3296.15     
  1576.92        2500.00        3296.35     
  1573.72        2500.00        3296.55     
  1570.51        2500.00        3296.76     
  1567.31        2500.00        3296.98     
  1564.10        2500.00        3297.20     
  1560.90        2500.00        3297.46     
  1557.69        2500.00        3297.74     
  1554.49        2500.00        3298.01     
  1551.28        2500.00        3298.29     
  1548.08        2500.00        3298.57     
  1544.87        2500.00        3298.85     
  1541.67        2500.00        3299.13     
  1538.46        2500.00        3299.42     
  1535.26        2500.00        3299.73     
  1532.05        2500.00        3300.04     
  1528.85        2500.00        3300.35     
  1525.64        2500.00        3300.66     
  1522.44        2500.00        3300.98     
  1519.23        2500.00        3301.30     
  1516.03        2500.00        3301.62     
  1512.82        2500.00        3301.94     
  1509.62        2500.00        3302.27     
  1506.41        2500.00        3302.61     
  1503.21        2500.00        3302.95     
  1500.00        2500.00        3303.40     
  1496.79        2500.00        3303.90     
  1493.59        2500.00        3304.39     
  1490.38        2500.00        3304.88     
  1487.18        2500.00        3305.37     
  1483.97        2500.00        3305.88     
  1480.77        2500.00        3306.40     
  1477.56        2500.00        3306.92     
  1474.36        2500.00        3307.43     
  1471.15        2500.00        3307.87     
  1467.95        2500.00        3308.31     
  1464.74        2500.00        3308.75     
  1461.54        2500.00        3309.42     
  1458.33        2500.00        3309.86     
  1455.13        2500.00        3310.29     
  1451.92        2500.00        3310.73     
  1448.72        2500.00        3311.36     
  1445.51        2500.00        3311.83     
  1442.31        2500.00        3311.61     
  1439.10        2500.00        3312.05     
  1435.90        2500.00        3310.59     
  1432.69        2500.00        3311.02     
  1429.49        2500.00        3311.46     
  1426.28        2500.00        3311.89     
  1423.08        2500.00        3312.33     
  1419.87        2500.00        3312.76     
  1416.67        2500.00        3313.20     
  1413.46        2500.00        3313.63     
  1410.26        2500.00        3308.48     
  1407.05        2500.00        3308.91     
  1403.85        2500.00        3309.34     
  1400.64        2500.00        3309.77     
  1397.44        2500.00        3310.20     
  1394.23        2500.00        3310.63     
  1391.03        2500.00        3311.06     
  1387.82        2500.00        3311.49     
  1384.62        2500.00        3307.85     
  1381.41        2500.00        3308.27     
  1378.21        2500.00        3308.70     
  1375.00        2500.00        3309.13     
  1371.79        2500.00        3309.55     
  1368.59        2500.00        3309.98     
  1365.38        2500.00        3310.40     
  1362.18        2500.00        3310.83     
  1358.97        2500.00        3307.88     
  1355.77        2500.00        3308.30     
  1352.56        2500.00        3308.73     
  1349.36        2500.00        3309.15     
  1346.15        2500.00        3309.57     
  1342.95        2500.00        3309.99     
  1339.74        2500.00        3310.41     
  1336.54        2500.00        3310.83     
  1333.33        2500.00        3308.35     
  1330.13        2500.00        3308.77     
  1326.92        2500.00        3308.53     
  1323.72        2500.00        3308.62     
  1320.51        2500.00        3308.50     
  1317.31        2500.00        3308.73     
  1314.10        2500.00        3309.06     
  1310.90        2500.00        3309.48     
  1307.69        2500.00        3309.73     
  1304.49        2500.00        3310.14     
  1301.28        2500.00        3310.56     
  1298.08        2500.00        3310.97     
  1294.87        2500.00        3311.39     
  1291.67        2500.00        3311.80     
  1288.46        2500.00        3312.22     
  1285.26        2500.00        3312.63     
  1282.05        2500.00        3312.41     
  1278.85        2500.00        3312.82     
  1275.64        2500.00        3313.23     
  1272.44        2500.00        3313.65     
  1269.23        2500.00        3314.06     
  1266.03        2500.00        3314.47     
  1262.82        2500.00        3314.88     
  1259.62        2500.00        3315.30     
  1256.41        2500.00        3315.15     
  1253.21        2500.00        3315.57     
  1250.00        2500.00        3315.98     
  1246.79        2500.00        3316.39     
  1243.59        2500.00        3316.80     
  1240.38        2500.00        3317.21     
  1237.18        2500.00        3317.62     
  1233.97        2500.00        3318.03     
  1230.77        2500.00        3317.95     
  1227.56        2500.00        3318.36     
  1224.36        2500.00        3318.76     
  1221.15        2500.00        3319.17     
  1217.95        2500.00        3319.58     
  1214.74        2500.00        3319.99     
  1211.54        2500.00        3320.40     
  1208.33        2500.00        3320.80     
  1205.13        2500.00        3320.80     
  1201.92        2500.00        3321.21     
  1198.72        2500.00        3321.62     
  1195.51        2500.00        3322.02     
  1192.31        2500.00        3322.43     
  1189.10        2500.00        3322.83     
  1185.90        2500.00        3323.24     
  1182.69        2500.00        3323.64     
  1179.49        2500.00        3323.72     
  1176.28        2500.00        3324.12     
  1173.08        2500.00        3324.53     
  1169.87        2500.00        3324.93     
  1166.67        2500.00        3325.33     
  1163.46        2500.00        3325.74     
  1160.26        2500.00        3326.14     
  1157.05        2500.00        3326.54     
  1153.85        2500.00        3326.69     
  1150.64        2500.00        3327.09     
  1147.44        2500.00        3327.49     
  1144.23        2500.00        3327.89     
  1141.03        2500.00        3328.29     
  1137.82        2500.00        3328.69     
  1134.62        2500.00        3329.09     
  1131.41        2500.00        3329.49     
  1128.21        2500.00        3329.74     
  1125.00        2500.00        3330.14     
  1121.79        2500.00        3330.54     
  1118.59        2500.00        3330.94     
  1115.38        2500.00        3331.33     
  1112.18        2500.00        3331.73     
  1108.97        2500.00        3332.13     
  1105.77        2500.00        3332.53     
  1102.56        2500.00        3332.84     
  1099.36        2500.00        3333.24     
  1096.15        2500.00        3333.64     
  1092.95        2500.00        3334.03     
  1089.74        2500.00        3334.43     
  1086.54        2500.00        3334.83     
  1083.33        2500.00        3335.23     
  1080.13        2500.00        3335.62     
  1076.92        2500.00        3336.03     
  1073.72        2500.00        3336.43     
  1070.51        2500.00        3336.84     
  1067.31        2500.00        3337.25     
  1064.10        2500.00        3337.65     
  1060.90        2500.00        3338.04     
  1057.69        2500.00        3338.44     
  1054.49        2500.00        3338.83     
  1051.28        2500.00        3339.26     
  1048.08        2500.00        3339.65     
  1044.87        2500.00        3340.05     
  1041.67        2500.00        3340.44     
  1038.46        2500.00        3340.83     
  1035.26        2500.00        3341.23     
  1032.05        2500.00        3341.62     
  1028.85        2500.00        3342.01     
  1025.64        2500.00        3342.53     
  1022.44        2500.00        3342.93     
  1019.23        2500.00        3343.32     
  1016.03        2500.00        3343.71     
  1012.82        2500.00        3344.10     
  1009.62        2500.00        3344.49     
  1006.41        2500.00        3344.88     
  1003.21        2500.00        3345.27     
  1000.00        2500.00        3345.90     
