|6.6.6
Archiving\03_Data\eq/QFM_m0.5/TIS/TIS_6.tab                               
           1
T(K)    
  0.000000000000000E+000
  0.000000000000000E+000
           0
           3
T(K)           P(bar)         rho,kg/m3     
  2000.00        2500.00        3594.80     
  1996.79        2500.00        3595.28     
  1993.59        2500.00        3595.75     
  1990.38        2500.00        3596.23     
  1987.18        2500.00        3596.70     
  1983.97        2500.00        3597.18     
  1980.77        2500.00        3597.65     
  1977.56        2500.00        3598.13     
  1974.36        2500.00        3598.60     
  1971.15        2500.00        3599.08     
  1967.95        2500.00        3599.55     
  1964.74        2500.00        3600.03     
  1961.54        2500.00        3600.50     
  1958.33        2500.00        3600.97     
  1955.13        2500.00        3601.45     
  1951.92        2500.00        3601.92     
  1948.72        2500.00        3602.39     
  1945.51        2500.00        3602.86     
  1942.31        2500.00        3603.34     
  1939.10        2500.00        3603.81     
  1935.90        2500.00        3604.28     
  1932.69        2500.00        3604.75     
  1929.49        2500.00        3605.22     
  1926.28        2500.00        3605.70     
  1923.08        2500.00        3606.17     
  1919.87        2500.00        3606.64     
  1916.67        2500.00        3607.11     
  1913.46        2500.00        3607.58     
  1910.26        2500.00        3608.05     
  1907.05        2500.00        3608.52     
  1903.85        2500.00        3608.99     
  1900.64        2500.00        3609.46     
  1897.44        2500.00        3609.93     
  1894.23        2500.00        3610.40     
  1891.03        2500.00        3610.87     
  1887.82        2500.00        3611.34     
  1884.62        2500.00        3611.81     
  1881.41        2500.00        3612.27     
  1878.21        2500.00        3612.74     
  1875.00        2500.00        3613.21     
  1871.79        2500.00        3613.68     
  1868.59        2500.00        3614.15     
  1865.38        2500.00        3614.61     
  1862.18        2500.00        3615.08     
  1858.97        2500.00        3615.55     
  1855.77        2500.00        3616.01     
  1852.56        2500.00        3616.48     
  1849.36        2500.00        3616.95     
  1846.15        2500.00        3617.41     
  1842.95        2500.00        3617.88     
  1839.74        2500.00        3618.35     
  1836.54        2500.00        3618.81     
  1833.33        2500.00        3619.28     
  1830.13        2500.00        3619.74     
  1826.92        2500.00        3620.21     
  1823.72        2500.00        3620.67     
  1820.51        2500.00        3621.14     
  1817.31        2500.00        3621.60     
  1814.10        2500.00        3622.07     
  1810.90        2500.00        3622.53     
  1807.69        2500.00        3622.99     
  1804.49        2500.00        3623.46     
  1801.28        2500.00        3591.31     
  1798.08        2500.00        3591.58     
  1794.87        2500.00        3591.85     
  1791.67        2500.00        3591.79     
  1788.46        2500.00        3591.74     
  1785.26        2500.00        3591.69     
  1782.05        2500.00        3591.64     
  1778.85        2500.00        3591.60     
  1775.64        2500.00        3591.56     
  1772.44        2500.00        3591.51     
  1769.23        2500.00        3591.48     
  1766.03        2500.00        3591.25     
  1762.82        2500.00        3591.02     
  1759.62        2500.00        3590.80     
  1756.41        2500.00        3590.58     
  1753.21        2500.00        3590.37     
  1750.00        2500.00        3590.16     
  1746.79        2500.00        3589.96     
  1743.59        2500.00        3589.75     
  1740.38        2500.00        3589.18     
  1737.18        2500.00        3588.62     
  1733.97        2500.00        3588.06     
  1730.77        2500.00        3587.51     
  1727.56        2500.00        3586.98     
  1724.36        2500.00        3586.45     
  1721.15        2500.00        3585.93     
  1717.95        2500.00        3585.42     
  1714.74        2500.00        3584.51     
  1711.54        2500.00        3583.63     
  1708.33        2500.00        3582.76     
  1705.13        2500.00        3581.90     
  1701.92        2500.00        3580.39     
  1698.72        2500.00        3583.02     
  1695.51        2500.00        3591.80     
  1692.31        2500.00        3600.24     
  1689.10        2500.00        3605.36     
  1685.90        2500.00        3610.21     
  1682.69        2500.00        3614.82     
  1679.49        2500.00        3619.20     
  1676.28        2500.00        3623.37     
  1673.08        2500.00        3627.35     
  1669.87        2500.00        3631.16     
  1666.67        2500.00        3634.80     
  1663.46        2500.00        3621.97     
  1660.26        2500.00        3611.19     
  1657.05        2500.00        3602.02     
  1653.85        2500.00        3594.13     
  1650.64        2500.00        3587.29     
  1647.44        2500.00        3581.31     
  1644.23        2500.00        3576.05     
  1641.03        2500.00        3571.39     
  1637.82        2500.00        3544.14     
  1634.62        2500.00        3525.38     
  1631.41        2500.00        3511.74     
  1628.21        2500.00        3501.40     
  1625.00        2500.00        3493.34     
  1621.79        2500.00        3486.90     
  1618.59        2500.00        3481.65     
  1615.38        2500.00        3477.32     
  1612.18        2500.00        3474.90     
  1608.97        2500.00        3472.96     
  1605.77        2500.00        3471.38     
  1602.56        2500.00        3470.09     
  1599.36        2500.00        3469.04     
  1596.15        2500.00        3468.17     
  1592.95        2500.00        3467.46     
  1589.74        2500.00        3466.88     
  1586.54        2500.00        3467.48     
  1583.33        2500.00        3468.07     
  1580.13        2500.00        3468.65     
  1576.92        2500.00        3469.22     
  1573.72        2500.00        3470.30     
  1570.51        2500.00        3471.33     
  1567.31        2500.00        3472.43     
  1564.10        2500.00        3466.22     
  1560.90        2500.00        3458.24     
  1557.69        2500.00        3451.28     
  1554.49        2500.00        3445.17     
  1551.28        2500.00        3439.76     
  1548.08        2500.00        3434.96     
  1544.87        2500.00        3430.67     
  1541.67        2500.00        3426.82     
  1538.46        2500.00        3423.35     
  1535.26        2500.00        3421.19     
  1532.05        2500.00        3419.22     
  1528.85        2500.00        3417.42     
  1525.64        2500.00        3415.78     
  1522.44        2500.00        3414.27     
  1519.23        2500.00        3412.89     
  1516.03        2500.00        3411.62     
  1512.82        2500.00        3410.46     
  1509.62        2500.00        3409.60     
  1506.41        2500.00        3408.81     
  1503.21        2500.00        3408.09     
  1500.00        2500.00        3407.44     
  1496.79        2500.00        3406.79     
  1493.59        2500.00        3405.38     
  1490.38        2500.00        3404.50     
  1487.18        2500.00        3403.73     
  1483.97        2500.00        3403.55     
  1480.77        2500.00        3403.42     
  1477.56        2500.00        3403.32     
  1474.36        2500.00        3403.25     
  1471.15        2500.00        3403.59     
  1467.95        2500.00        3403.93     
  1464.74        2500.00        3404.33     
  1461.54        2500.00        3404.76     
  1458.33        2500.00        3405.21     
  1455.13        2500.00        3405.66     
  1451.92        2500.00        3406.12     
  1448.72        2500.00        3406.57     
  1445.51        2500.00        3407.02     
  1442.31        2500.00        3407.47     
  1439.10        2500.00        3407.92     
  1435.90        2500.00        3409.82     
  1432.69        2500.00        3410.26     
  1429.49        2500.00        3410.71     
  1426.28        2500.00        3411.16     
  1423.08        2500.00        3411.60     
  1419.87        2500.00        3412.05     
  1416.67        2500.00        3412.50     
  1413.46        2500.00        3412.94     
  1410.26        2500.00        3415.05     
  1407.05        2500.00        3412.42     
  1403.85        2500.00        3408.95     
  1400.64        2500.00        3409.38     
  1397.44        2500.00        3402.87     
  1394.23        2500.00        3403.31     
  1391.03        2500.00        3403.74     
  1387.82        2500.00        3404.18     
  1384.62        2500.00        3393.08     
  1381.41        2500.00        3393.51     
  1378.21        2500.00        3393.94     
  1375.00        2500.00        3394.37     
  1371.79        2500.00        3394.79     
  1368.59        2500.00        3395.22     
  1365.38        2500.00        3395.65     
  1362.18        2500.00        3396.07     
  1358.97        2500.00        3378.28     
  1355.77        2500.00        3378.70     
  1352.56        2500.00        3379.11     
  1349.36        2500.00        3379.53     
  1346.15        2500.00        3379.95     
  1342.95        2500.00        3380.37     
  1339.74        2500.00        3380.78     
  1336.54        2500.00        3381.20     
  1333.33        2500.00        3366.67     
  1330.13        2500.00        3365.37     
  1326.92        2500.00        3364.18     
  1323.72        2500.00        3364.59     
  1320.51        2500.00        3364.51     
  1317.31        2500.00        3364.92     
  1314.10        2500.00        3365.33     
  1310.90        2500.00        3365.74     
  1307.69        2500.00        3365.22     
  1304.49        2500.00        3365.62     
  1301.28        2500.00        3366.03     
  1298.08        2500.00        3366.44     
  1294.87        2500.00        3366.84     
  1291.67        2500.00        3367.25     
  1288.46        2500.00        3367.65     
  1285.26        2500.00        3368.05     
  1282.05        2500.00        3366.77     
  1278.85        2500.00        3367.17     
  1275.64        2500.00        3367.58     
  1272.44        2500.00        3367.98     
  1269.23        2500.00        3368.38     
  1266.03        2500.00        3368.78     
  1262.82        2500.00        3369.19     
  1259.62        2500.00        3369.59     
  1256.41        2500.00        3368.48     
  1253.21        2500.00        3368.88     
  1250.00        2500.00        3369.28     
  1246.79        2500.00        3369.68     
  1243.59        2500.00        3370.08     
  1240.38        2500.00        3370.48     
  1237.18        2500.00        3370.88     
  1233.97        2500.00        3371.28     
  1230.77        2500.00        3370.31     
  1227.56        2500.00        3370.71     
  1224.36        2500.00        3371.11     
  1221.15        2500.00        3371.51     
  1217.95        2500.00        3371.91     
  1214.74        2500.00        3372.30     
  1211.54        2500.00        3372.70     
  1208.33        2500.00        3373.10     
  1205.13        2500.00        3372.31     
  1201.92        2500.00        3372.70     
  1198.72        2500.00        3373.10     
  1195.51        2500.00        3373.49     
  1192.31        2500.00        3373.89     
  1189.10        2500.00        3374.28     
  1185.90        2500.00        3374.67     
  1182.69        2500.00        3375.07     
  1179.49        2500.00        3374.40     
  1176.28        2500.00        3374.80     
  1173.08        2500.00        3375.19     
  1169.87        2500.00        3375.58     
  1166.67        2500.00        3375.97     
  1163.46        2500.00        3376.37     
  1160.26        2500.00        3376.76     
  1157.05        2500.00        3377.15     
  1153.85        2500.00        3376.60     
  1150.64        2500.00        3376.99     
  1147.44        2500.00        3377.38     
  1144.23        2500.00        3377.77     
  1141.03        2500.00        3378.16     
  1137.82        2500.00        3378.55     
  1134.62        2500.00        3378.94     
  1131.41        2500.00        3379.33     
  1128.21        2500.00        3378.94     
  1125.00        2500.00        3379.32     
  1121.79        2500.00        3379.71     
  1118.59        2500.00        3380.10     
  1115.38        2500.00        3380.49     
  1112.18        2500.00        3380.87     
  1108.97        2500.00        3381.26     
  1105.77        2500.00        3381.65     
  1102.56        2500.00        3381.34     
  1099.36        2500.00        3381.72     
  1096.15        2500.00        3382.11     
  1092.95        2500.00        3382.49     
  1089.74        2500.00        3382.88     
  1086.54        2500.00        3383.26     
  1083.33        2500.00        3383.65     
  1080.13        2500.00        3384.03     
  1076.92        2500.00        3383.84     
  1073.72        2500.00        3384.22     
  1070.51        2500.00        3384.60     
  1067.31        2500.00        3384.99     
  1064.10        2500.00        3385.37     
  1060.90        2500.00        3385.75     
  1057.69        2500.00        3386.13     
  1054.49        2500.00        3386.52     
  1051.28        2500.00        3386.40     
  1048.08        2500.00        3386.78     
  1044.87        2500.00        3387.16     
  1041.67        2500.00        3387.54     
  1038.46        2500.00        3387.92     
  1035.26        2500.00        3388.30     
  1032.05        2500.00        3388.68     
  1028.85        2500.00        3389.06     
  1025.64        2500.00        3389.03     
  1022.44        2500.00        3389.40     
  1019.23        2500.00        3389.78     
  1016.03        2500.00        3390.16     
  1012.82        2500.00        3390.54     
  1009.62        2500.00        3390.92     
  1006.41        2500.00        3391.29     
  1003.21        2500.00        3391.67     
  1000.00        2500.00        3391.73     
