|6.6.6
Archiving\03_Data\eqLP/QFM_m1/KHA22/KHA22_6.tab                           
           1
T(K)    
  0.000000000000000E+000
  0.000000000000000E+000
           0
           3
T(K)           P(bar)         rho,kg/m3     
  2000.00        500.000        5145.98     
  1996.79        500.000        5146.94     
  1993.59        500.000        5147.91     
  1990.38        500.000        5148.87     
  1987.18        500.000        5149.84     
  1983.97        500.000        5150.80     
  1980.77        500.000        5151.76     
  1977.56        500.000        5152.72     
  1974.36        500.000        5153.69     
  1971.15        500.000        5154.65     
  1967.95        500.000        5155.61     
  1964.74        500.000        5156.57     
  1961.54        500.000        5157.52     
  1958.33        500.000        4113.45     
  1955.13        500.000        3718.49     
  1951.92        500.000        3694.56     
  1948.72        500.000        3672.55     
  1945.51        500.000        3630.62     
  1942.31        500.000        3594.79     
  1939.10        500.000        3563.82     
  1935.90        500.000        3536.81     
  1932.69        500.000        3513.04     
  1929.49        500.000        3491.98     
  1926.28        500.000        3473.19     
  1923.08        500.000        3456.34     
  1919.87        500.000        3405.78     
  1916.67        500.000        3369.12     
  1913.46        500.000        3341.36     
  1910.26        500.000        3319.64     
  1907.05        500.000        3302.21     
  1903.85        500.000        3287.94     
  1900.64        500.000        3276.06     
  1897.44        500.000        3266.03     
  1894.23        500.000        3251.93     
  1891.03        500.000        3240.96     
  1887.82        500.000        3231.01     
  1884.62        500.000        3220.46     
  1881.41        500.000        3182.63     
  1878.21        500.000        3180.85     
  1875.00        500.000        3180.47     
  1871.79        500.000        3181.33     
  1868.59        500.000        3182.82     
  1865.38        500.000        3184.20     
  1862.18        500.000        3185.47     
  1858.97        500.000        3186.67     
  1855.77        500.000        3187.79     
  1852.56        500.000        3188.85     
  1849.36        500.000        3189.85     
  1846.15        500.000        3190.81     
  1842.95        500.000        3192.56     
  1839.74        500.000        3194.21     
  1836.54        500.000        3195.77     
  1833.33        500.000        3197.26     
  1830.13        500.000        3198.68     
  1826.92        500.000        3200.03     
  1823.72        500.000        3201.33     
  1820.51        500.000        3202.58     
  1817.31        500.000        3204.28     
  1814.10        500.000        3205.92     
  1810.90        500.000        3207.50     
  1807.69        500.000        3209.02     
  1804.49        500.000        3210.48     
  1801.28        500.000        3211.90     
  1798.08        500.000        3213.27     
  1794.87        500.000        3214.59     
  1791.67        500.000        3216.28     
  1788.46        500.000        3217.91     
  1785.26        500.000        3219.49     
  1782.05        500.000        3221.02     
  1778.85        500.000        3222.52     
  1775.64        500.000        3223.97     
  1772.44        500.000        3225.38     
  1769.23        500.000        3226.76     
  1766.03        500.000        3228.37     
  1762.82        500.000        3229.94     
  1759.62        500.000        3231.47     
  1756.41        500.000        3232.96     
  1753.21        500.000        3234.42     
  1750.00        500.000        3235.85     
  1746.79        500.000        3237.25     
  1743.59        500.000        3238.62     
  1740.38        500.000        3240.10     
  1737.18        500.000        3241.55     
  1733.97        500.000        3242.97     
  1730.77        500.000        3244.36     
  1727.56        500.000        3245.73     
  1724.36        500.000        3247.08     
  1721.15        500.000        3248.40     
  1717.95        500.000        3249.70     
  1714.74        500.000        3251.05     
  1711.54        500.000        3252.37     
  1708.33        500.000        3253.68     
  1705.13        500.000        3254.97     
  1701.92        500.000        3256.23     
  1698.72        500.000        3257.48     
  1695.51        500.000        3258.71     
  1692.31        500.000        3259.92     
  1689.10        500.000        3261.13     
  1685.90        500.000        3262.33     
  1682.69        500.000        3263.51     
  1679.49        500.000        3264.67     
  1676.28        500.000        3265.82     
  1673.08        500.000        3266.96     
  1669.87        500.000        3268.08     
  1666.67        500.000        3269.19     
  1663.46        500.000        3270.27     
  1660.26        500.000        3271.34     
  1657.05        500.000        3272.40     
  1653.85        500.000        3273.45     
  1650.64        500.000        3274.48     
  1647.44        500.000        3275.51     
  1644.23        500.000        3276.53     
  1641.03        500.000        3277.54     
  1637.82        500.000        3278.49     
  1634.62        500.000        3279.44     
  1631.41        500.000        3280.39     
  1628.21        500.000        3281.32     
  1625.00        500.000        3282.25     
  1621.79        500.000        3283.17     
  1618.59        500.000        3284.08     
  1615.38        500.000        3284.99     
  1612.18        500.000        3285.85     
  1608.97        500.000        3286.70     
  1605.77        500.000        3287.55     
  1602.56        500.000        3288.39     
  1599.36        500.000        3289.23     
  1596.15        500.000        3290.07     
  1592.95        500.000        3290.85     
  1589.74        500.000        3291.15     
  1586.54        500.000        3290.56     
  1583.33        500.000        3290.00     
  1580.13        500.000        3289.47     
  1576.92        500.000        3288.97     
  1573.72        500.000        3288.49     
  1570.51        500.000        3288.04     
  1567.31        500.000        3287.62     
  1564.10        500.000        3287.22     
  1560.90        500.000        3287.07     
  1557.69        500.000        3286.94     
  1554.49        500.000        3286.82     
  1551.28        500.000        3286.71     
  1548.08        500.000        3286.61     
  1544.87        500.000        3286.52     
  1541.67        500.000        3286.45     
  1538.46        500.000        3286.38     
  1535.26        500.000        3286.44     
  1532.05        500.000        3286.51     
  1528.85        500.000        3286.58     
  1525.64        500.000        3286.66     
  1522.44        500.000        3286.74     
  1519.23        500.000        3286.83     
  1516.03        500.000        3286.93     
  1512.82        500.000        3287.03     
  1509.62        500.000        3287.19     
  1506.41        500.000        3287.36     
  1503.21        500.000        3287.54     
  1500.00        500.000        3287.71     
  1496.79        500.000        3287.89     
  1493.59        500.000        3288.08     
  1490.38        500.000        3288.26     
  1487.18        500.000        3288.45     
  1483.97        500.000        3288.68     
  1480.77        500.000        3288.90     
  1477.56        500.000        3289.13     
  1474.36        500.000        3289.35     
  1471.15        500.000        3289.59     
  1467.95        500.000        3289.82     
  1464.74        500.000        3290.05     
  1461.54        500.000        3290.29     
  1458.33        500.000        3290.55     
  1455.13        500.000        3290.81     
  1451.92        500.000        3291.07     
  1448.72        500.000        3291.34     
  1445.51        500.000        3291.63     
  1442.31        500.000        3291.97     
  1439.10        500.000        3292.33     
  1435.90        500.000        3292.69     
  1432.69        500.000        3293.10     
  1429.49        500.000        3293.50     
  1426.28        500.000        3293.91     
  1423.08        500.000        3294.31     
  1419.87        500.000        3294.72     
  1416.67        500.000        3295.13     
  1413.46        500.000        3295.53     
  1410.26        500.000        3295.93     
  1407.05        500.000        3296.36     
  1403.85        500.000        3296.78     
  1400.64        500.000        3297.21     
  1397.44        500.000        3296.87     
  1394.23        500.000        3297.30     
  1391.03        500.000        3297.74     
  1387.82        500.000        3298.18     
  1384.62        500.000        3294.00     
  1381.41        500.000        3294.44     
  1378.21        500.000        3294.87     
  1375.00        500.000        3295.30     
  1371.79        500.000        3295.74     
  1368.59        500.000        3296.17     
  1365.38        500.000        3296.60     
  1362.18        500.000        3297.03     
  1358.97        500.000        3290.65     
  1355.77        500.000        3291.08     
  1352.56        500.000        3291.50     
  1349.36        500.000        3291.93     
  1346.15        500.000        3292.36     
  1342.95        500.000        3292.78     
  1339.74        500.000        3293.21     
  1336.54        500.000        3293.63     
  1333.33        500.000        3288.94     
  1330.13        500.000        3289.36     
  1326.92        500.000        3289.78     
  1323.72        500.000        3290.20     
  1320.51        500.000        3290.62     
  1317.31        500.000        3291.05     
  1314.10        500.000        3291.47     
  1310.90        500.000        3291.89     
  1307.69        500.000        3288.12     
  1304.49        500.000        3288.54     
  1301.28        500.000        3288.02     
  1298.08        500.000        3257.26     
  1294.87        500.000        3240.53     
  1291.67        500.000        3240.93     
  1288.46        500.000        3241.34     
  1285.26        500.000        3241.74     
  1282.05        500.000        3241.91     
  1278.85        500.000        3242.31     
  1275.64        500.000        3242.72     
  1272.44        500.000        3243.12     
  1269.23        500.000        3243.52     
  1266.03        500.000        3243.93     
  1262.82        500.000        3244.33     
  1259.62        500.000        3244.73     
  1256.41        500.000        3244.68     
  1253.21        500.000        3245.08     
  1250.00        500.000        3245.49     
  1246.79        500.000        3245.89     
  1243.59        500.000        3246.29     
  1240.38        500.000        3246.69     
  1237.18        500.000        3247.09     
  1233.97        500.000        3247.49     
  1230.77        500.000        3247.47     
  1227.56        500.000        3247.87     
  1224.36        500.000        3248.27     
  1221.15        500.000        3248.67     
  1217.95        500.000        3249.07     
  1214.74        500.000        3249.47     
  1211.54        500.000        3249.87     
  1208.33        500.000        3250.27     
  1205.13        500.000        3250.28     
  1201.92        500.000        3250.68     
  1198.72        500.000        3251.08     
  1195.51        500.000        3251.47     
  1192.31        500.000        3251.87     
  1189.10        500.000        3252.27     
  1185.90        500.000        3252.66     
  1182.69        500.000        3253.06     
  1179.49        500.000        3253.11     
  1176.28        500.000        3253.50     
  1173.08        500.000        3253.90     
  1169.87        500.000        3254.29     
  1166.67        500.000        3254.69     
  1163.46        500.000        3255.08     
  1160.26        500.000        3255.48     
  1157.05        500.000        3255.87     
  1153.85        500.000        3255.95     
  1150.64        500.000        3256.34     
  1147.44        500.000        3256.73     
  1144.23        500.000        3257.13     
  1141.03        500.000        3257.52     
  1137.82        500.000        3257.91     
  1134.62        500.000        3258.30     
  1131.41        500.000        3258.70     
  1128.21        500.000        3258.81     
  1125.00        500.000        3259.20     
  1121.79        500.000        3259.59     
  1118.59        500.000        3259.98     
  1115.38        500.000        3260.37     
  1112.18        500.000        3260.76     
  1108.97        500.000        3261.15     
  1105.77        500.000        3261.54     
  1102.56        500.000        3261.68     
  1099.36        500.000        3262.07     
  1096.15        500.000        3262.46     
  1092.95        500.000        3262.85     
  1089.74        500.000        3263.23     
  1086.54        500.000        3263.62     
  1083.33        500.000        3264.01     
  1080.13        500.000        3264.40     
  1076.92        500.000        3264.57     
  1073.72        500.000        3264.96     
  1070.51        500.000        3265.35     
  1067.31        500.000        3265.73     
  1064.10        500.000        3266.12     
  1060.90        500.000        3266.51     
  1057.69        500.000        3266.89     
  1054.49        500.000        3267.28     
  1051.28        500.000        3267.49     
  1048.08        500.000        3267.86     
  1044.87        500.000        3268.23     
  1041.67        500.000        3268.62     
  1038.46        500.000        3268.98     
  1035.26        500.000        3269.36     
  1032.05        500.000        3269.73     
  1028.85        500.000        3270.12     
  1025.64        500.000        3270.46     
  1022.44        500.000        3270.85     
  1019.23        500.000        3271.24     
  1016.03        500.000        3271.63     
  1012.82        500.000        3272.02     
  1009.62        500.000        3272.41     
  1006.41        500.000        3272.79     
  1003.21        500.000        3273.18     
  1000.00        500.000        3273.42     
