|6.6.6
Archiving\03_Data\fracLP/QFM_m1.75/EETA/EETA_6.tab                        
           1
T(K)    
  0.000000000000000E+000
  0.000000000000000E+000
           0
           3
T(K)           P(bar)         rho,kg/m3     
  2000.00        500.000        3616.67     
  1997.49        500.000        3617.05     
  1994.99        500.000        3617.43     
  1992.48        500.000        3617.81     
  1989.97        500.000        3618.20     
  1987.47        500.000        3618.58     
  1984.96        500.000        3618.96     
  1982.46        500.000        3619.34     
  1979.95        500.000        3619.72     
  1977.44        500.000        3620.10     
  1974.94        500.000        3620.48     
  1972.43        500.000        3620.86     
  1969.92        500.000        3621.24     
  1967.42        500.000        3621.62     
  1964.91        500.000        3622.00     
  1962.41        500.000        3622.38     
  1959.90        500.000        3622.75     
  1957.39        500.000        3623.13     
  1954.89        500.000        3623.51     
  1952.38        500.000        3623.89     
  1949.87        500.000        3624.27     
  1947.37        500.000        3624.65     
  1944.86        500.000        3625.03     
  1942.36        500.000        3625.40     
  1939.85        500.000        3625.78     
  1937.34        500.000        3626.16     
  1934.84        500.000        3626.54     
  1932.33        500.000        3626.92     
  1929.82        500.000        3627.29     
  1927.32        500.000        3627.67     
  1924.81        500.000        3628.05     
  1922.31        500.000        3628.43     
  1919.80        500.000        3628.80     
  1917.29        500.000        3629.18     
  1914.79        500.000        3629.56     
  1912.28        500.000        3629.93     
  1909.77        500.000        3630.31     
  1907.27        500.000        3630.69     
  1904.76        500.000        3631.06     
  1902.26        500.000        3631.44     
  1899.75        500.000        3631.81     
  1897.24        500.000        3632.19     
  1894.74        500.000        3632.57     
  1892.23        500.000        3632.94     
  1889.72        500.000        3633.32     
  1887.22        500.000        3633.69     
  1884.71        500.000        3634.07     
  1882.21        500.000        3634.44     
  1879.70        500.000        3634.82     
  1877.19        500.000        3635.19     
  1874.69        500.000        3635.57     
  1872.18        500.000        3635.94     
  1869.67        500.000        3636.31     
  1867.17        500.000        3636.69     
  1864.66        500.000        3637.06     
  1862.16        500.000        3637.44     
  1859.65        500.000        3637.81     
  1857.14        500.000        3638.18     
  1854.64        500.000        3638.56     
  1852.13        500.000        3638.93     
  1849.62        500.000        3639.31     
  1847.12        500.000        3639.68     
  1844.61        500.000        3640.05     
  1842.11        500.000        3640.42     
  1839.60        500.000        3640.80     
  1837.09        500.000        3641.17     
  1834.59        500.000        3641.54     
  1832.08        500.000        3641.92     
  1829.57        500.000        3642.29     
  1827.07        500.000        3642.66     
  1824.56        500.000        3643.03     
  1822.06        500.000        3643.40     
  1819.55        500.000        3643.78     
  1817.04        500.000        3644.15     
  1814.54        500.000        3644.52     
  1812.03        500.000        3644.89     
  1809.52        500.000        3645.26     
  1807.02        500.000        3645.63     
  1804.51        500.000        3646.00     
  1802.01        500.000        3646.37     
  1799.50        500.000        3646.75     
  1796.99        500.000        3647.12     
  1794.49        500.000        3647.49     
  1791.98        500.000        3647.86     
  1789.47        500.000        3648.23     
  1786.97        500.000        3648.60     
  1784.46        500.000        3648.97     
  1781.95        500.000        3649.34     
  1779.45        500.000        3649.71     
  1776.94        500.000        3650.08     
  1774.44        500.000        3650.45     
  1771.93        500.000        3650.82     
  1769.42        500.000        3651.18     
  1766.92        500.000        3651.55     
  1764.41        500.000        3651.92     
  1761.90        500.000        3652.29     
  1759.40        500.000        3652.66     
  1756.89        500.000        3653.03     
  1754.39        500.000        3653.40     
  1751.88        500.000        3653.77     
  1749.37        500.000        3654.13     
  1746.87        500.000        3654.50     
  1744.36        500.000        3654.87     
  1741.85        500.000        3655.24     
  1739.35        500.000        3655.61     
  1736.84        500.000        3655.97     
  1734.34        500.000        3656.34     
  1731.83        500.000        3656.71     
  1729.32        500.000        3657.08     
  1726.82        500.000        3657.44     
  1724.31        500.000        3657.81     
  1721.80        500.000        3658.18     
  1719.30        500.000        3658.54     
  1716.79        500.000        3658.91     
  1714.29        500.000        3659.28     
  1711.78        500.000        3659.64     
  1709.27        500.000        3660.01     
  1706.77        500.000        3660.38     
  1704.26        500.000        3660.74     
  1701.75        500.000        3661.11     
  1699.25        500.000        3661.47     
  1696.74        500.000        3661.84     
  1694.24        500.000        3662.20     
  1691.73        500.000        3662.57     
  1689.22        500.000        3662.94     
  1686.72        500.000        3663.30     
  1684.21        500.000        3663.67     
  1681.70        500.000        3664.03     
  1679.20        500.000        3664.40     
  1676.69        500.000        3664.76     
  1674.19        500.000        3665.12     
  1671.68        500.000        3665.49     
  1669.17        500.000        3665.85     
  1666.67        500.000        3666.22     
  1664.16        500.000        3666.58     
  1661.65        500.000        3666.95     
  1659.15        500.000        3667.31     
  1656.64        500.000        3667.67     
  1654.14        500.000        3668.04     
  1651.63        500.000        3668.40     
  1649.12        500.000        3668.76     
  1646.62        500.000        3671.56     
  1644.11        500.000        3673.18     
  1641.60        500.000        3678.58     
  1639.10        500.000        3569.31     
  1636.59        500.000        4512.25     
  1634.09        500.000        4512.05     
  1631.58        500.000        4511.85     
  1629.07        500.000        4512.57     
  1626.57        500.000        4513.00     
  1624.06        500.000        4512.87     
  1621.55        500.000        4512.78     
  1619.05        500.000        4513.53     
  1616.54        500.000        4513.94     
  1614.04        500.000        4513.63     
  1611.53        500.000        4514.21     
  1609.02        500.000        4514.10     
  1606.52        500.000        3502.41     
  1604.01        500.000        3410.25     
  1601.50        500.000        3400.96     
  1599.00        500.000        3401.97     
  1596.49        500.000        3403.72     
  1593.98        500.000        3405.32     
  1591.48        500.000        3408.45     
  1588.97        500.000        3409.09     
  1586.47        500.000        3410.63     
  1583.96        500.000        3411.56     
  1581.45        500.000        3414.94     
  1578.95        500.000        3416.35     
  1576.44        500.000        3418.32     
  1573.93        500.000        3420.43     
  1571.43        500.000        3422.08     
  1568.92        500.000        3423.74     
  1566.42        500.000        3425.43     
  1563.91        500.000        3426.68     
  1561.40        500.000        3431.05     
  1558.90        500.000        3431.16     
  1556.39        500.000        3431.79     
  1553.88        500.000        3435.80     
  1551.38        500.000        3437.56     
  1548.87        500.000        3439.76     
  1546.37        500.000        3443.24     
  1543.86        500.000        3442.52     
  1541.35        500.000        3444.35     
  1538.85        500.000        3447.23     
  1536.34        500.000        3308.13     
  1533.83        500.000        3289.31     
  1531.33        500.000        3289.94     
  1528.82        500.000        3291.11     
  1526.32        500.000        3292.23     
  1523.81        500.000        3293.31     
  1521.30        500.000        3294.48     
  1518.80        500.000        3296.03     
  1516.29        500.000        3296.63     
  1513.78        500.000        3297.21     
  1511.28        500.000        3306.28     
  1508.77        500.000        3300.08     
  1506.27        500.000        3301.61     
  1503.76        500.000        3302.81     
  1501.25        500.000        3303.42     
  1498.75        500.000        3304.45     
  1496.24        500.000        3306.23     
  1493.73        500.000        3306.72     
  1491.23        500.000        3308.27     
  1488.72        500.000        3296.93     
  1486.22        500.000        3295.69     
  1483.71        500.000        3296.75     
  1481.20        500.000        3299.30     
  1478.70        500.000        3300.90     
  1476.19        500.000        3302.30     
  1473.68        500.000        3303.63     
  1471.18        500.000        3304.77     
  1468.67        500.000        3307.24     
  1466.17        500.000        3304.01     
  1463.66        500.000        3287.42     
  1461.15        500.000        3289.97     
  1458.65        500.000        3292.40     
  1456.14        500.000        3294.85     
  1453.63        500.000        3297.38     
  1451.13        500.000        3299.64     
  1448.62        500.000        3302.47     
  1446.12        500.000        3305.03     
  1443.61        500.000        3307.19     
  1441.10        500.000        3310.09     
  1438.60        500.000        3312.41     
  1436.09        500.000        3314.82     
  1433.58        500.000        3317.39     
  1431.08        500.000        3319.84     
  1428.57        500.000        3322.92     
  1426.07        500.000        3325.38     
  1423.56        500.000        3327.55     
  1421.05        500.000        3330.58     
  1418.55        500.000        3334.17     
  1416.04        500.000        3336.89     
  1413.53        500.000        3339.13     
  1411.03        500.000        3341.92     
  1408.52        500.000        3344.46     
  1406.02        500.000        3346.92     
  1403.51        500.000        3174.37     
  1401.00        500.000        3159.17     
  1398.50        500.000        3162.50     
  1395.99        500.000        3165.89     
  1393.48        500.000        3169.14     
  1390.98        500.000        3172.35     
  1388.47        500.000        3175.78     
  1385.96        500.000        3178.92     
  1383.46        500.000        3182.55     
  1380.95        500.000        3185.95     
  1378.45        500.000        3189.17     
  1375.94        500.000        3192.48     
  1373.43        500.000        3195.93     
  1370.93        500.000        3199.43     
  1368.42        500.000        3202.62     
  1365.91        500.000        3206.28     
  1363.41        500.000        3209.85     
  1360.90        500.000        3213.18     
  1358.40        500.000        3216.75     
  1355.89        500.000        3236.01     
  1353.38        500.000        3261.71     
  1350.88        500.000        3265.98     
  1348.37        500.000        3270.25     
  1345.86        500.000        3274.50     
  1343.36        500.000        3275.95     
  1340.85        500.000        3281.75     
  1338.35        500.000        3285.75     
  1335.84        500.000        3288.88     
  1333.33        500.000        3292.22     
  1330.83        500.000        3295.56     
  1328.32        500.000        3298.24     
  1325.81        500.000        3302.16     
  1323.31        500.000        3305.20     
  1320.80        500.000        3308.24     
  1318.30        500.000        3311.59     
  1315.79        500.000        3315.12     
  1313.28        500.000        3317.36     
  1310.78        500.000        3348.46     
  1308.27        500.000        3365.14     
  1305.76        500.000        3367.43     
  1303.26        500.000        3369.38     
  1300.75        500.000        3371.29     
  1298.25        500.000        3373.00     
  1295.74        500.000        3375.45     
  1293.23        500.000        3376.77     
  1290.73        500.000        3379.79     
  1288.22        500.000        3380.13     
  1285.71        500.000        3381.62     
  1283.21        500.000        3382.68     
  1280.70        500.000        3384.53     
  1278.20        500.000        3385.57     
  1275.69        500.000        3386.74     
  1273.18        500.000        3388.00     
  1270.68        500.000        3388.72     
  1268.17        500.000        3389.95     
  1265.66        500.000        3067.54     
  1263.16        500.000        2868.12     
  1260.65        500.000        2871.15     
  1258.15        500.000        2873.79     
  1255.64        500.000        2876.09     
  1253.13        500.000        2878.09     
  1250.63        500.000        2879.54     
  1248.12        500.000        2880.83     
  1245.61        500.000        2881.81     
  1243.11        500.000        2882.47     
  1240.60        500.000        2883.00     
  1238.10        500.000        2883.32     
  1235.59        500.000        2883.38     
  1233.08        500.000        2883.19     
  1230.58        500.000        2883.03     
  1228.07        500.000        2882.08     
  1225.56        500.000        2881.61     
  1223.06        500.000        2879.95     
  1220.55        500.000        2880.50     
  1218.05        500.000        2880.06     
  1215.54        500.000        2880.54     
  1213.03        500.000        2879.80     
  1210.53        500.000        2694.23     
  1208.02        500.000        2690.37     
  1205.51        500.000        2689.85     
  1203.01        500.000        2678.87     
  1200.50        500.000        2805.36     
  1197.99        500.000        2679.19     
  1195.49        500.000        2676.14     
  1192.98        500.000        2668.92     
  1190.48        500.000        2663.80     
  1187.97        500.000        2643.26     
  1185.46        500.000        2636.50     
  1182.96        500.000        2636.56     
  1180.45        500.000        2636.68     
  1177.94        500.000        2636.79     
  1175.44        500.000        2636.90     
  1172.93        500.000        2637.00     
  1170.43        500.000        2637.11     
  1167.92        500.000        2637.25     
  1165.41        500.000        2637.37     
  1162.91        500.000        2637.48     
  1160.40        500.000        2637.57     
  1157.89        500.000        2637.70     
  1155.39        500.000        2637.80     
  1152.88        500.000        2637.92     
  1150.38        500.000        2638.03     
  1147.87        500.000        2633.82     
  1145.36        500.000        2633.95     
  1142.86        500.000        2634.02     
  1140.35        500.000        2634.06     
  1137.84        500.000        2634.17     
  1135.34        500.000        2634.23     
  1132.83        500.000        2634.30     
  1130.33        500.000        2634.38     
  1127.82        500.000        2634.47     
  1125.31        500.000        2634.55     
  1122.81        500.000        2634.64     
  1120.30        500.000        2634.72     
  1117.79        500.000        2634.81     
  1115.29        500.000        2634.89     
  1112.78        500.000        2634.98     
  1110.28        500.000        2635.07     
  1107.77        500.000        2635.16     
  1105.26        500.000        2635.25     
  1102.76        500.000        2635.33     
  1100.25        500.000        2635.42     
  1097.74        500.000        2635.51     
  1095.24        500.000        2635.59     
  1092.73        500.000        2635.68     
  1090.23        500.000        2635.77     
  1087.72        500.000        2635.86     
  1085.21        500.000        2635.95     
  1082.71        500.000        2636.04     
  1080.20        500.000        2636.13     
  1077.69        500.000        2636.22     
  1075.19        500.000        2636.31     
  1072.68        500.000        2636.40     
  1070.18        500.000        2636.49     
  1067.67        500.000        2636.58     
  1065.16        500.000        2636.68     
  1062.66        500.000        2636.77     
  1060.15        500.000        2636.86     
  1057.64        500.000        2636.95     
  1055.14        500.000        2637.03     
  1052.63        500.000        2637.13     
  1050.13        500.000        2637.22     
  1047.62        500.000        2637.31     
  1045.11        500.000        2637.40     
  1042.61        500.000        2637.49     
  1040.10        500.000        2637.60     
  1037.59        500.000        2637.68     
  1035.09        500.000        2637.77     
  1032.58        500.000        2637.88     
  1030.08        500.000        2637.95     
  1027.57        500.000        2638.04     
  1025.06        500.000        2638.13     
  1022.56        500.000        2637.09     
  1020.05        500.000        2637.14     
  1017.54        500.000        2637.24     
  1015.04        500.000        2637.34     
  1012.53        500.000        2637.44     
  1010.03        500.000        2637.54     
  1007.52        500.000        2637.64     
  1005.01        500.000        2637.74     
  1002.51        500.000        2637.84     
  1000.00        500.000        2637.93     
