|6.6.6
Archiving\03_Data\eqfrac/QFM_m0.25/KHA22/KHA22_6.tab                      
           1
T(K)    
  0.000000000000000E+000
  0.000000000000000E+000
           0
           3
T(K)           P(bar)         rho,kg/m3     
  1583.33        2500.00        3255.51     
  1581.87        2500.00        3220.81     
  1580.41        2500.00        3226.57     
  1578.94        2500.00        3223.86     
  1577.48        2500.00        3223.76     
  1576.02        2500.00        3224.19     
  1574.56        2500.00        3224.79     
  1573.10        2500.00        3226.93     
  1571.63        2500.00        3282.58     
  1570.17        2500.00        3220.98     
  1568.71        2500.00        3226.05     
  1567.25        2500.00        3221.26     
  1565.79        2500.00        3226.13     
  1564.32        2500.00        3226.51     
  1562.86        2500.00        3227.80     
  1561.40        2500.00        3226.21     
  1559.94        2500.00        3228.64     
  1558.48        2500.00        3229.37     
  1557.01        2500.00        3229.69     
  1555.55        2500.00        3229.90     
  1554.09        2500.00        3230.53     
  1552.63        2500.00        3230.31     
  1551.17        2500.00        3231.10     
  1549.70        2500.00        3231.60     
  1548.24        2500.00        3229.47     
  1546.78        2500.00        3235.17     
  1545.32        2500.00        3232.46     
  1543.86        2500.00        3233.28     
  1542.39        2500.00        3233.82     
  1540.93        2500.00        3234.38     
  1539.47        2500.00        3230.05     
  1538.01        2500.00        3233.18     
  1536.55        2500.00        3235.53     
  1535.08        2500.00        3236.13     
  1533.62        2500.00        3235.77     
  1532.16        2500.00        3237.90     
  1530.70        2500.00        3245.67     
  1529.24        2500.00        3234.16     
  1527.77        2500.00        3237.98     
  1526.31        2500.00        3236.61     
  1524.85        2500.00        3237.91     
  1523.39        2500.00        3242.78     
  1521.93        2500.00        3236.40     
  1520.46        2500.00        3239.18     
  1519.00        2500.00        3239.95     
  1517.54        2500.00        3239.80     
  1516.08        2500.00        3240.39     
  1514.62        2500.00        3240.69     
  1513.15        2500.00        3240.85     
  1511.69        2500.00        3241.13     
  1510.23        2500.00        3241.51     
  1508.77        2500.00        3241.99     
  1507.31        2500.00        3242.33     
  1505.85        2500.00        3242.45     
  1504.38        2500.00        3243.74     
  1502.92        2500.00        3242.95     
  1501.46        2500.00        3243.90     
  1500.00        2500.00        3243.43     
  1498.54        2500.00        3244.29     
  1497.07        2500.00        3244.53     
  1495.61        2500.00        3244.66     
  1494.15        2500.00        3245.25     
  1492.69        2500.00        2776.39     
  1491.23        2500.00        3245.86     
  1489.76        2500.00        3244.92     
  1488.30        2500.00        3246.39     
  1486.84        2500.00        3246.41     
  1485.38        2500.00        3247.11     
  1483.92        2500.00        3247.52     
  1482.45        2500.00        3247.31     
  1480.99        2500.00        3218.59     
  1479.53        2500.00        3239.20     
  1478.07        2500.00        3235.15     
  1476.61        2500.00        3235.65     
  1475.14        2500.00        3252.68     
  1473.68        2500.00        3232.22     
  1472.22        2500.00        3231.96     
  1470.76        2500.00        3232.86     
  1469.30        2500.00        3233.44     
  1467.83        2500.00        3234.33     
  1466.37        2500.00        3235.15     
  1464.91        2500.00        3235.90     
  1463.45        2500.00        3236.99     
  1461.99        2500.00        3237.91     
  1460.52        2500.00        3238.85     
  1459.06        2500.00        3239.14     
  1457.60        2500.00        3238.24     
  1456.14        2500.00        3242.60     
  1454.68        2500.00        3241.52     
  1453.21        2500.00        3242.42     
  1451.75        2500.00        3243.36     
  1450.29        2500.00        3244.39     
  1448.83        2500.00        3244.98     
  1447.37        2500.00        3245.81     
  1445.90        2500.00        3246.61     
  1444.44        2500.00        3247.48     
  1442.98        2500.00        3248.40     
  1441.52        2500.00        3249.30     
  1440.06        2500.00        3250.27     
  1438.59        2500.00        3251.11     
  1437.13        2500.00        3251.99     
  1435.67        2500.00        3253.22     
  1434.21        2500.00        3267.90     
  1432.75        2500.00        3252.98     
  1431.28        2500.00        3254.67     
  1429.82        2500.00        3256.91     
  1428.36        2500.00        3259.89     
  1426.90        2500.00        3258.82     
  1425.44        2500.00        3259.98     
  1423.97        2500.00        3261.05     
  1422.51        2500.00        3261.93     
  1421.05        2500.00        3232.26     
  1419.59        2500.00        3091.63     
  1418.13        2500.00        3094.07     
  1416.66        2500.00        3095.21     
  1415.20        2500.00        3096.29     
  1413.74        2500.00        3097.39     
  1412.28        2500.00        3098.59     
  1410.82        2500.00        3099.76     
  1409.35        2500.00        3101.07     
  1407.89        2500.00        3101.94     
  1406.43        2500.00        3103.42     
  1404.97        2500.00        3104.53     
  1403.51        2500.00        3105.77     
  1402.04        2500.00        3106.82     
  1400.58        2500.00        3108.22     
  1399.12        2500.00        3109.22     
  1397.66        2500.00        3110.44     
  1396.20        2500.00        3111.54     
  1394.73        2500.00        3112.60     
  1393.27        2500.00        3113.99     
  1391.81        2500.00        3115.23     
  1390.35        2500.00        3116.34     
  1388.89        2500.00        3117.49     
  1387.42        2500.00        3118.79     
  1385.96        2500.00        3119.97     
  1384.50        2500.00        3121.12     
  1383.04        2500.00        3122.52     
  1381.58        2500.00        3123.84     
  1380.11        2500.00        3124.86     
  1378.65        2500.00        3126.04     
  1377.19        2500.00        3127.42     
  1375.73        2500.00        3128.61     
  1374.27        2500.00        3130.86     
  1372.80        2500.00        3131.45     
  1371.34        2500.00        3132.54     
  1369.88        2500.00        3133.41     
  1368.42        2500.00        3134.67     
  1366.96        2500.00        3135.61     
  1365.49        2500.00        3137.13     
  1364.03        2500.00        3138.41     
  1362.57        2500.00        3139.45     
  1361.11        2500.00        3140.74     
  1359.65        2500.00        3142.16     
  1358.19        2500.00        3143.50     
  1356.72        2500.00        3144.65     
  1355.26        2500.00        3145.88     
  1353.80        2500.00        3147.24     
  1352.34        2500.00        3148.50     
  1350.88        2500.00        3149.65     
  1349.41        2500.00        3151.06     
  1347.95        2500.00        3151.96     
  1346.49        2500.00        3153.55     
  1345.03        2500.00        3154.70     
  1343.57        2500.00        3154.97     
  1342.10        2500.00        3157.16     
  1340.64        2500.00        3158.29     
  1339.18        2500.00        3159.59     
  1337.72        2500.00        3161.03     
  1336.26        2500.00        3162.01     
  1334.79        2500.00        3163.23     
  1333.33        2500.00        3164.45     
  1331.87        2500.00        3165.59     
  1330.41        2500.00        3166.97     
  1328.95        2500.00        3168.01     
  1327.48        2500.00        3169.29     
  1326.02        2500.00        3170.36     
  1324.56        2500.00        3171.73     
  1323.10        2500.00        3172.76     
  1321.64        2500.00        3173.85     
  1320.17        2500.00        3175.00     
  1318.71        2500.00        3176.23     
  1317.25        2500.00        3177.29     
  1315.79        2500.00        3178.39     
  1314.33        2500.00        3179.69     
  1312.86        2500.00        3180.84     
  1311.40        2500.00        3181.87     
  1309.94        2500.00        3182.79     
  1308.48        2500.00        3184.02     
  1307.02        2500.00        2767.10     
  1305.55        2500.00        2766.54     
  1304.09        2500.00        2773.11     
  1302.63        2500.00        2773.69     
  1301.17        2500.00        2776.50     
  1299.71        2500.00        2779.45     
  1298.24        2500.00        2782.34     
  1296.78        2500.00        2785.68     
  1295.32        2500.00        2788.10     
  1293.86        2500.00        2790.93     
  1292.40        2500.00        2845.01     
  1290.93        2500.00        2843.48     
  1289.47        2500.00        2841.53     
  1288.01        2500.00        2839.79     
  1286.55        2500.00        2838.17     
  1285.09        2500.00        2804.00     
  1283.62        2500.00        2880.50     
  1282.16        2500.00        2828.27     
  1280.70        2500.00        2823.47     
  1279.24        2500.00        2873.09     
  1277.78        2500.00        2839.50     
  1276.31        2500.00        2828.67     
  1274.85        2500.00        2829.09     
  1273.39        2500.00        2827.01     
  1271.93        2500.00        2828.33     
  1270.47        2500.00        2825.50     
  1269.00        2500.00        2820.87     
  1267.54        2500.00        2868.60     
  1266.08        2500.00        3960.47     
  1264.62        2500.00        2815.52     
  1263.16        2500.00        2816.87     
  1261.69        2500.00        2821.44     
  1260.23        2500.00        2817.25     
  1258.77        2500.00        2820.95     
  1257.31        2500.00        2816.52     
  1255.85        2500.00        2764.98     
  1254.38        2500.00        2756.59     
  1252.92        2500.00        2746.95     
  1251.46        2500.00        2736.47     
  1250.00        2500.00        2714.91     
  1248.54        2500.00        2703.48     
  1247.07        2500.00        2703.68     
  1245.61        2500.00        2703.89     
  1244.15        2500.00        2704.05     
  1242.69        2500.00        2704.25     
  1241.23        2500.00        2704.08     
  1239.76        2500.00        2704.29     
  1238.30        2500.00        2704.49     
  1236.84        2500.00        2704.70     
  1235.38        2500.00        2704.90     
  1233.92        2500.00        2705.11     
  1232.45        2500.00        2705.32     
  1230.99        2500.00        2705.53     
  1229.53        2500.00        2705.73     
  1228.07        2500.00        2705.94     
  1226.61        2500.00        2706.15     
  1225.14        2500.00        2706.35     
  1223.68        2500.00        2706.56     
  1222.22        2500.00        2706.77     
  1220.76        2500.00        2706.98     
  1219.30        2500.00        2707.19     
  1217.84        2500.00        2707.40     
  1216.37        2500.00        2707.60     
  1214.91        2500.00        2707.81     
  1213.45        2500.00        2708.02     
  1211.99        2500.00        2708.23     
  1210.53        2500.00        2708.44     
  1209.06        2500.00        2708.65     
  1207.60        2500.00        2708.85     
  1206.14        2500.00        2709.06     
  1204.68        2500.00        2709.27     
  1203.22        2500.00        2709.42     
  1201.75        2500.00        2709.63     
  1200.29        2500.00        2709.84     
  1198.83        2500.00        2710.06     
  1197.37        2500.00        2710.27     
  1195.91        2500.00        2710.48     
  1194.44        2500.00        2710.69     
  1192.98        2500.00        2710.91     
  1191.52        2500.00        2711.12     
  1190.06        2500.00        2725.50     
  1188.60        2500.00        2725.80     
  1187.13        2500.00        2725.98     
  1185.67        2500.00        2726.15     
  1184.21        2500.00        2726.33     
  1182.75        2500.00        2726.51     
  1181.29        2500.00        2726.70     
  1179.82        2500.00        2726.96     
  1178.36        2500.00        2727.15     
  1176.90        2500.00        2737.62     
  1175.44        2500.00        2737.87     
  1173.98        2500.00        2738.36     
  1172.51        2500.00        2738.76     
  1171.05        2500.00        2739.13     
  1169.59        2500.00        2739.55     
  1168.13        2500.00        2739.91     
  1166.67        2500.00        2740.09     
  1165.20        2500.00        2740.71     
  1163.74        2500.00        2741.07     
  1162.28        2500.00        2741.39     
  1160.82        2500.00        2741.77     
  1159.36        2500.00        2742.22     
  1157.89        2500.00        2742.62     
  1156.43        2500.00        2743.02     
  1154.97        2500.00        2743.41     
  1153.51        2500.00        2743.79     
  1152.05        2500.00        2744.18     
  1150.58        2500.00        2744.57     
  1149.12        2500.00        2744.96     
  1147.66        2500.00        2745.36     
  1146.20        2500.00        2745.75     
  1144.74        2500.00        2746.15     
  1143.27        2500.00        2746.13     
  1141.81        2500.00        2746.94     
  1140.35        2500.00        2747.35     
  1138.89        2500.00        2747.75     
  1137.43        2500.00        2747.96     
  1135.96        2500.00        2748.56     
  1134.50        2500.00        2748.97     
  1133.04        2500.00        2749.34     
  1131.58        2500.00        2749.79     
  1130.12        2500.00        2750.15     
  1128.65        2500.00        2750.65     
  1127.19        2500.00        2751.01     
  1125.73        2500.00        2751.44     
  1124.27        2500.00        2751.88     
  1122.81        2500.00        2752.33     
  1121.34        2500.00        2752.77     
  1119.88        2500.00        2753.15     
  1118.42        2500.00        2753.47     
  1116.96        2500.00        2754.10     
  1115.50        2500.00        2754.38     
  1114.03        2500.00        2754.98     
  1112.57        2500.00        2755.40     
  1111.11        2500.00        2755.84     
  1109.65        2500.00        2756.28     
  1108.19        2500.00        2756.66     
  1106.72        2500.00        2757.23     
  1105.26        2500.00        2757.68     
  1103.80        2500.00        2758.07     
  1102.34        2500.00        2758.61     
  1100.88        2500.00        2759.02     
  1099.41        2500.00        2759.55     
  1097.95        2500.00        2760.04     
  1096.49        2500.00        2760.53     
  1095.03        2500.00        2761.00     
  1093.57        2500.00        2761.47     
  1092.10        2500.00        2761.98     
  1090.64        2500.00        2762.49     
  1089.18        2500.00        2763.00     
  1087.72        2500.00        2763.50     
  1086.26        2500.00        2764.01     
  1084.79        2500.00        2764.52     
  1083.33        2500.00        2765.06     
  1081.87        2500.00        2765.46     
  1080.41        2500.00        2765.67     
  1078.95        2500.00        2766.06     
  1077.48        2500.00        2766.47     
  1076.02        2500.00        2766.65     
  1074.56        2500.00        2766.95     
  1073.10        2500.00        2767.26     
  1071.64        2500.00        2767.56     
  1070.18        2500.00        2767.87     
  1068.71        2500.00        2768.13     
  1067.25        2500.00        2768.39     
  1065.79        2500.00        2768.66     
  1064.33        2500.00        2768.94     
  1062.87        2500.00        2769.55     
  1061.40        2500.00        2769.63     
  1059.94        2500.00        2770.00     
  1058.48        2500.00        2770.27     
  1057.02        2500.00        2770.84     
  1055.56        2500.00        2771.12     
  1054.09        2500.00        2772.50     
  1052.63        2500.00        2771.76     
  1051.17        2500.00        2772.11     
  1049.71        2500.00        2772.47     
  1048.25        2500.00        2772.81     
  1046.78        2500.00        2774.81     
  1045.32        2500.00        2774.94     
  1043.86        2500.00        2775.07     
  1042.40        2500.00        2775.20     
  1040.94        2500.00        2775.33     
  1039.47        2500.00        2775.46     
  1038.01        2500.00        2775.54     
  1036.55        2500.00        2775.67     
  1035.09        2500.00        2775.80     
  1033.63        2500.00        2775.93     
  1032.16        2500.00        2776.10     
  1030.70        2500.00        2775.84     
  1029.24        2500.00        2776.45     
  1027.78        2500.00        2776.84     
  1026.32        2500.00        2777.27     
  1024.85        2500.00        2777.51     
  1023.39        2500.00        2777.41     
  1021.93        2500.00        2777.88     
  1020.47        2500.00        2778.11     
  1019.01        2500.00        2778.28     
  1017.54        2500.00        2778.61     
  1016.08        2500.00        2778.67     
  1014.62        2500.00        2779.04     
  1013.16        2500.00        2779.25     
  1011.70        2500.00        2779.45     
  1010.23        2500.00        2779.66     
  1008.77        2500.00        2779.90     
  1007.31        2500.00        2780.08     
  1005.85        2500.00        2780.29     
  1004.39        2500.00        2780.49     
  1002.92        2500.00        2780.76     
  1001.46        2500.00        2780.95     
  1000.00        2500.00        2781.14     
