|6.6.6
Archiving\03_Data\eqfrac/QFM_m2.5/ALH/ALH_6.tab                           
           1
T(K)    
  0.000000000000000E+000
  0.000000000000000E+000
           0
           3
T(K)           P(bar)         rho,kg/m3     
  1564.10        2500.00        3616.83     
  1562.69        2500.00        3280.08     
  1561.27        2500.00        3280.39     
  1559.86        2500.00        3282.08     
  1558.44        2500.00        3279.73     
  1557.03        2500.00        3282.92     
  1555.62        2500.00        3282.73     
  1554.20        2500.00        3283.03     
  1552.79        2500.00        3283.95     
  1551.38        2500.00        3284.04     
  1549.96        2500.00        3284.58     
  1548.55        2500.00        3286.93     
  1547.13        2500.00        3288.46     
  1545.72        2500.00        3286.46     
  1544.31        2500.00        3286.23     
  1542.89        2500.00        3286.91     
  1541.48        2500.00        3288.00     
  1540.07        2500.00        3288.25     
  1538.65        2500.00        3288.53     
  1537.24        2500.00        3289.58     
  1535.82        2500.00        3290.11     
  1534.41        2500.00        3290.79     
  1533.00        2500.00        3291.44     
  1531.58        2500.00        3291.59     
  1530.17        2500.00        3291.99     
  1528.76        2500.00        3271.11     
  1527.34        2500.00        3275.14     
  1525.93        2500.00        3263.73     
  1524.51        2500.00        3264.94     
  1523.10        2500.00        3266.52     
  1521.69        2500.00        3269.72     
  1520.27        2500.00        3266.71     
  1518.86        2500.00        3268.06     
  1517.45        2500.00        3269.19     
  1516.03        2500.00        3269.52     
  1514.62        2500.00        3270.51     
  1513.20        2500.00        3271.44     
  1511.79        2500.00        3272.61     
  1510.38        2500.00        3273.10     
  1508.96        2500.00        3273.87     
  1507.55        2500.00        3274.73     
  1506.13        2500.00        3276.31     
  1504.72        2500.00        3276.34     
  1503.31        2500.00        3277.50     
  1501.89        2500.00        3279.67     
  1500.48        2500.00        3283.81     
  1499.07        2500.00        3287.75     
  1497.65        2500.00        3288.02     
  1496.24        2500.00        3282.96     
  1494.82        2500.00        3269.54     
  1493.41        2500.00        3270.23     
  1492.00        2500.00        3271.64     
  1490.58        2500.00        3272.38     
  1489.17        2500.00        3273.47     
  1487.76        2500.00        3274.36     
  1486.34        2500.00        3275.90     
  1484.93        2500.00        3276.84     
  1483.51        2500.00        3278.05     
  1482.10        2500.00        3279.07     
  1480.69        2500.00        3280.13     
  1479.27        2500.00        3281.26     
  1477.86        2500.00        3282.30     
  1476.45        2500.00        3283.66     
  1475.03        2500.00        3284.60     
  1473.62        2500.00        3286.86     
  1472.20        2500.00        3286.80     
  1470.79        2500.00        3288.03     
  1469.38        2500.00        3289.30     
  1467.96        2500.00        3290.38     
  1466.55        2500.00        3291.53     
  1465.14        2500.00        3292.69     
  1463.72        2500.00        3293.72     
  1462.31        2500.00        3295.31     
  1460.89        2500.00        3295.91     
  1459.48        2500.00        3297.32     
  1458.07        2500.00        3298.72     
  1456.65        2500.00        3299.70     
  1455.24        2500.00        3300.85     
  1453.82        2500.00        3302.09     
  1452.41        2500.00        3303.67     
  1451.00        2500.00        3304.57     
  1449.58        2500.00        3305.68     
  1448.17        2500.00        3354.39     
  1446.76        2500.00        3306.13     
  1445.34        2500.00        3308.81     
  1443.93        2500.00        3309.58     
  1442.51        2500.00        3310.93     
  1441.10        2500.00        3313.06     
  1439.69        2500.00        3314.25     
  1438.27        2500.00        3315.83     
  1436.86        2500.00        4332.77     
  1435.45        2500.00        3318.13     
  1434.03        2500.00        3319.78     
  1432.62        2500.00        3321.62     
  1431.20        2500.00        3321.75     
  1429.79        2500.00        3323.92     
  1428.38        2500.00        3324.59     
  1426.96        2500.00        3289.04     
  1425.55        2500.00        3141.36     
  1424.14        2500.00        3142.90     
  1422.72        2500.00        3146.11     
  1421.31        2500.00        3154.38     
  1419.89        2500.00        3156.31     
  1418.48        2500.00        3158.29     
  1417.07        2500.00        3160.17     
  1415.65        2500.00        3161.83     
  1414.24        2500.00        3163.82     
  1412.83        2500.00        3165.61     
  1411.41        2500.00        3167.82     
  1410.00        2500.00        3169.56     
  1408.58        2500.00        3171.75     
  1407.17        2500.00        3173.55     
  1405.76        2500.00        3175.35     
  1404.34        2500.00        3179.56     
  1402.93        2500.00        3179.53     
  1401.51        2500.00        3181.16     
  1400.10        2500.00        3182.82     
  1398.69        2500.00        3185.20     
  1397.27        2500.00        3186.97     
  1395.86        2500.00        3188.79     
  1394.45        2500.00        3190.78     
  1393.03        2500.00        3193.16     
  1391.62        2500.00        3195.20     
  1390.20        2500.00        3196.83     
  1388.79        2500.00        3198.83     
  1387.38        2500.00        3200.57     
  1385.96        2500.00        3202.68     
  1384.55        2500.00        3204.57     
  1383.14        2500.00        3206.67     
  1381.72        2500.00        3208.89     
  1380.31        2500.00        3209.71     
  1378.89        2500.00        3212.70     
  1377.48        2500.00        3214.38     
  1376.07        2500.00        3215.45     
  1374.65        2500.00        3217.91     
  1373.24        2500.00        3220.15     
  1371.83        2500.00        3222.08     
  1370.41        2500.00        3223.86     
  1369.00        2500.00        3225.69     
  1367.58        2500.00        3227.59     
  1366.17        2500.00        3229.54     
  1364.76        2500.00        3231.22     
  1363.34        2500.00        3233.24     
  1361.93        2500.00        3234.96     
  1360.52        2500.00        3236.89     
  1359.10        2500.00        3238.72     
  1357.69        2500.00        3240.30     
  1356.27        2500.00        3243.43     
  1354.86        2500.00        3242.29     
  1353.45        2500.00        3245.55     
  1352.03        2500.00        3247.13     
  1350.62        2500.00        3248.85     
  1349.20        2500.00        3250.19     
  1347.79        2500.00        3251.95     
  1346.38        2500.00        3253.52     
  1344.96        2500.00        3255.33     
  1343.55        2500.00        3256.85     
  1342.14        2500.00        3257.66     
  1340.72        2500.00        3259.28     
  1339.31        2500.00        3260.58     
  1337.89        2500.00        3262.48     
  1336.48        2500.00        3262.88     
  1335.07        2500.00        3265.38     
  1333.65        2500.00        3265.87     
  1332.24        2500.00        3284.10     
  1330.83        2500.00        3319.23     
  1329.41        2500.00        3320.01     
  1328.00        2500.00        3320.85     
  1326.58        2500.00        3321.68     
  1325.17        2500.00        3322.41     
  1323.76        2500.00        3323.19     
  1322.34        2500.00        3323.62     
  1320.93        2500.00        3324.32     
  1319.52        2500.00        3323.58     
  1318.10        2500.00        3326.09     
  1316.69        2500.00        3325.72     
  1315.27        2500.00        3326.17     
  1313.86        2500.00        3326.61     
  1312.45        2500.00        3327.23     
  1311.03        2500.00        3327.16     
  1309.62        2500.00        3327.76     
  1308.21        2500.00        3327.58     
  1306.79        2500.00        3328.05     
  1305.38        2500.00        3327.63     
  1303.96        2500.00        3328.80     
  1302.55        2500.00        3328.22     
  1301.14        2500.00        2855.14     
  1299.72        2500.00        2843.46     
  1298.31        2500.00        2847.53     
  1296.89        2500.00        2851.25     
  1295.48        2500.00        2854.92     
  1294.07        2500.00        2858.42     
  1292.65        2500.00        2861.37     
  1291.24        2500.00        2862.23     
  1289.83        2500.00        2865.43     
  1288.41        2500.00        2867.88     
  1287.00        2500.00        2870.13     
  1285.58        2500.00        2871.64     
  1284.17        2500.00        2875.68     
  1282.76        2500.00        2862.43     
  1281.34        2500.00        2925.72     
  1279.93        2500.00        2927.45     
  1278.52        2500.00        2889.61     
  1277.10        2500.00        2880.18     
  1275.69        2500.00        2894.40     
  1274.27        2500.00        2892.19     
  1272.86        2500.00        2894.48     
  1271.45        2500.00        2886.25     
  1270.03        2500.00        2912.06     
  1268.62        2500.00        2901.88     
  1267.21        2500.00        2900.25     
  1265.79        2500.00        2880.37     
  1264.38        2500.00        2902.67     
  1262.96        2500.00        2872.40     
  1261.55        2500.00        3000.79     
  1260.14        2500.00        3056.84     
  1258.72        2500.00        2855.32     
  1257.31        2500.00        2842.36     
  1255.89        2500.00        2839.71     
  1254.48        2500.00        2825.85     
  1253.07        2500.00        2838.48     
  1251.65        2500.00        2812.42     
  1250.24        2500.00        2797.61     
  1248.83        2500.00        2781.68     
  1247.41        2500.00        2781.86     
  1246.00        2500.00        2782.05     
  1244.58        2500.00        2782.23     
  1243.17        2500.00        2782.42     
  1241.76        2500.00        2782.60     
  1240.34        2500.00        2782.79     
  1238.93        2500.00        2782.97     
  1237.52        2500.00        2783.16     
  1236.10        2500.00        2783.34     
  1234.69        2500.00        2783.53     
  1233.27        2500.00        2783.72     
  1231.86        2500.00        2783.90     
  1230.45        2500.00        2784.09     
  1229.03        2500.00        2784.28     
  1227.62        2500.00        2784.47     
  1226.21        2500.00        2784.66     
  1224.79        2500.00        2784.85     
  1223.38        2500.00        2785.04     
  1221.96        2500.00        2785.25     
  1220.55        2500.00        2785.45     
  1219.14        2500.00        2785.65     
  1217.72        2500.00        2785.85     
  1216.31        2500.00        2786.06     
  1214.90        2500.00        2786.26     
  1213.48        2500.00        2786.46     
  1212.07        2500.00        2786.66     
  1210.65        2500.00        2786.86     
  1209.24        2500.00        2787.05     
  1207.83        2500.00        2787.25     
  1206.41        2500.00        2787.45     
  1205.00        2500.00        2787.64     
  1203.58        2500.00        2787.83     
  1202.17        2500.00        2788.03     
  1200.76        2500.00        2788.22     
  1199.34        2500.00        2788.41     
  1197.93        2500.00        2788.60     
  1196.52        2500.00        2788.79     
  1195.10        2500.00        2788.98     
  1193.69        2500.00        2789.17     
  1192.27        2500.00        2789.36     
  1190.86        2500.00        2789.55     
  1189.45        2500.00        2789.79     
  1188.03        2500.00        2789.99     
  1186.62        2500.00        2790.20     
  1185.21        2500.00        2790.40     
  1183.79        2500.00        2790.61     
  1182.38        2500.00        2790.81     
  1180.96        2500.00        2791.01     
  1179.55        2500.00        2791.21     
  1178.14        2500.00        2791.41     
  1176.72        2500.00        2791.61     
  1175.31        2500.00        2791.81     
  1173.90        2500.00        2792.01     
  1172.48        2500.00        2792.21     
  1171.07        2500.00        2792.40     
  1169.65        2500.00        2792.72     
  1168.24        2500.00        2792.13     
  1166.83        2500.00        2792.34     
  1165.41        2500.00        2792.54     
  1164.00        2500.00        2793.22     
  1162.59        2500.00        2793.44     
  1161.17        2500.00        2793.65     
  1159.76        2500.00        2793.87     
  1158.34        2500.00        2794.08     
  1156.93        2500.00        2794.30     
  1155.52        2500.00        2794.52     
  1154.10        2500.00        2794.74     
  1152.69        2500.00        2794.95     
  1151.27        2500.00        2795.17     
  1149.86        2500.00        2795.39     
  1148.45        2500.00        2795.61     
  1147.03        2500.00        2795.83     
  1145.62        2500.00        2796.05     
  1144.21        2500.00        2796.27     
  1142.79        2500.00        2796.49     
  1141.38        2500.00        2796.71     
  1139.96        2500.00        2796.93     
  1138.55        2500.00        2797.15     
  1137.14        2500.00        2797.36     
  1135.72        2500.00        2797.58     
  1134.31        2500.00        2797.82     
  1132.90        2500.00        2798.04     
  1131.48        2500.00        2798.30     
  1130.07        2500.00        2798.51     
  1128.65        2500.00        2798.78     
  1127.24        2500.00        2798.97     
  1125.83        2500.00        2799.23     
  1124.41        2500.00        2799.41     
  1123.00        2500.00        2799.69     
  1121.59        2500.00        2799.85     
  1120.17        2500.00        2800.14     
  1118.76        2500.00        2800.29     
  1117.34        2500.00        2800.60     
  1115.93        2500.00        2800.75     
  1114.52        2500.00        2801.06     
  1113.10        2500.00        2801.19     
  1111.69        2500.00        2801.52     
  1110.28        2500.00        2801.57     
  1108.86        2500.00        2802.14     
  1107.45        2500.00        2801.89     
  1106.03        2500.00        2802.51     
  1104.62        2500.00        2802.22     
  1103.21        2500.00        2802.85     
  1101.79        2500.00        2802.66     
  1100.38        2500.00        2803.19     
  1098.96        2500.00        2803.04     
  1097.55        2500.00        2803.54     
  1096.14        2500.00        2803.26     
  1094.72        2500.00        2803.87     
  1093.31        2500.00        2804.07     
  1091.90        2500.00        2804.20     
  1090.48        2500.00        2803.86     
  1089.07        2500.00        2804.61     
  1087.65        2500.00        2804.22     
  1086.24        2500.00        2804.97     
  1084.83        2500.00        2804.59     
  1083.41        2500.00        2805.33     
  1082.00        2500.00        2804.96     
  1080.59        2500.00        2805.70     
  1079.17        2500.00        2805.34     
  1077.76        2500.00        2806.71     
  1076.34        2500.00        2806.84     
  1074.93        2500.00        2806.98     
  1073.52        2500.00        2807.11     
  1072.10        2500.00        2807.24     
  1070.69        2500.00        2807.38     
  1069.28        2500.00        2807.51     
  1067.86        2500.00        2807.64     
  1066.45        2500.00        2807.78     
  1065.03        2500.00        2807.91     
  1063.62        2500.00        2808.05     
  1062.21        2500.00        2808.18     
  1060.79        2500.00        2808.31     
  1059.38        2500.00        2808.45     
  1057.97        2500.00        2808.58     
  1056.55        2500.00        2808.71     
  1055.14        2500.00        2808.85     
  1053.72        2500.00        2808.98     
  1052.31        2500.00        2809.11     
  1050.90        2500.00        2809.25     
  1049.48        2500.00        2809.38     
  1048.07        2500.00        2809.51     
  1046.65        2500.00        2809.65     
  1045.24        2500.00        2809.78     
  1043.83        2500.00        2809.91     
  1042.41        2500.00        2810.05     
  1041.00        2500.00        2810.18     
  1039.59        2500.00        2810.31     
  1038.17        2500.00        2810.44     
  1036.76        2500.00        2810.58     
  1035.34        2500.00        2810.71     
  1033.93        2500.00        2810.84     
  1032.52        2500.00        2810.98     
  1031.10        2500.00        2811.11     
  1029.69        2500.00        2811.24     
  1028.28        2500.00        2811.37     
  1026.86        2500.00        2811.51     
  1025.45        2500.00        2811.64     
  1024.03        2500.00        2811.77     
  1022.62        2500.00        2811.90     
  1021.21        2500.00        2812.04     
  1019.79        2500.00        2812.17     
  1018.38        2500.00        2812.30     
  1016.97        2500.00        2812.43     
  1015.55        2500.00        2812.57     
  1014.14        2500.00        2812.70     
  1012.72        2500.00        2812.83     
  1011.31        2500.00        2812.96     
  1009.90        2500.00        2813.10     
  1008.48        2500.00        2813.23     
  1007.07        2500.00        2813.36     
  1005.66        2500.00        2813.49     
  1004.24        2500.00        2813.62     
  1002.83        2500.00        2814.26     
  1001.41        2500.00        2832.92     
  1000.00        2500.00        2832.19     
