|6.6.6
Archiving\03_Data\DfracLP/QFM_m4.75/WD94/WD94_6.tab                       
           1
T(K)    
  0.000000000000000E+000
  0.000000000000000E+000
           0
           3
T(K)           P(bar)         rho,kg/m3     
  2000.00        500.000        7270.42     
  1997.49        500.000        7271.52     
  1994.99        500.000        7272.61     
  1992.48        500.000        7273.70     
  1989.97        500.000        7274.79     
  1987.47        500.000        7275.88     
  1984.96        500.000        7276.97     
  1982.46        500.000        7278.05     
  1979.95        500.000        7279.14     
  1977.44        500.000        7280.23     
  1974.94        500.000        7281.31     
  1972.43        500.000        7282.40     
  1969.92        500.000        7283.48     
  1967.42        500.000        7284.56     
  1964.91        500.000        7285.65     
  1962.41        500.000        7286.73     
  1959.90        500.000        7287.81     
  1957.39        500.000        7288.89     
  1954.89        500.000        7289.97     
  1952.38        500.000        7291.05     
  1949.87        500.000        7292.13     
  1947.37        500.000        7293.20     
  1944.86        500.000        7294.28     
  1942.36        500.000        7295.36     
  1939.85        500.000        7296.43     
  1937.34        500.000        7297.51     
  1934.84        500.000        7298.58     
  1932.33        500.000        7299.65     
  1929.82        500.000        7300.72     
  1927.32        500.000        7301.80     
  1924.81        500.000        7302.87     
  1922.31        500.000        7303.94     
  1919.80        500.000        7305.01     
  1917.29        500.000        7306.07     
  1914.79        500.000        7307.14     
  1912.28        500.000        7308.21     
  1909.77        500.000        7309.28     
  1907.27        500.000        7310.34     
  1904.76        500.000        7311.41     
  1902.26        500.000        7312.47     
  1899.75        500.000        7313.54     
  1897.24        500.000        6773.28     
  1894.74        500.000        3141.20     
  1892.23        500.000        3223.17     
  1889.72        500.000        3148.37     
  1887.22        500.000        3145.78     
  1884.71        500.000        3146.80     
  1882.21        500.000        3148.43     
  1879.70        500.000        3150.26     
  1877.19        500.000        3151.45     
  1874.69        500.000        3153.30     
  1872.18        500.000        3154.67     
  1869.67        500.000        3155.54     
  1867.17        500.000        3156.54     
  1864.66        500.000        3158.51     
  1862.16        500.000        3162.40     
  1859.65        500.000        3163.22     
  1857.14        500.000        3163.41     
  1854.64        500.000        3164.80     
  1852.13        500.000        3166.25     
  1849.62        500.000        3167.54     
  1847.12        500.000        3169.32     
  1844.61        500.000        3170.86     
  1842.11        500.000        3172.47     
  1839.60        500.000        3174.19     
  1837.09        500.000        3175.17     
  1834.59        500.000        3176.70     
  1832.08        500.000        3201.46     
  1829.57        500.000        4359.69     
  1827.07        500.000        3191.75     
  1824.56        500.000        3206.94     
  1822.06        500.000        3208.32     
  1819.55        500.000        3209.83     
  1817.04        500.000        3211.40     
  1814.54        500.000        3212.87     
  1812.03        500.000        3214.50     
  1809.52        500.000        3216.24     
  1807.02        500.000        3217.81     
  1804.51        500.000        3218.94     
  1802.01        500.000        3220.62     
  1799.50        500.000        3222.13     
  1796.99        500.000        3222.25     
  1794.49        500.000        3225.28     
  1791.98        500.000        3225.79     
  1789.47        500.000        3227.42     
  1786.97        500.000        3229.48     
  1784.46        500.000        3230.56     
  1781.95        500.000        3231.60     
  1779.45        500.000        3233.14     
  1776.94        500.000        3234.85     
  1774.44        500.000        3234.89     
  1771.93        500.000        3238.03     
  1769.42        500.000        3239.25     
  1766.92        500.000        3240.29     
  1764.41        500.000        3241.98     
  1761.90        500.000        3243.68     
  1759.40        500.000        3245.16     
  1756.89        500.000        3249.05     
  1754.39        500.000        3246.75     
  1751.88        500.000        3249.11     
  1749.37        500.000        3250.47     
  1746.87        500.000        3251.19     
  1744.36        500.000        3253.39     
  1741.85        500.000        3255.03     
  1739.35        500.000        3256.04     
  1736.84        500.000        3257.52     
  1734.34        500.000        3257.30     
  1731.83        500.000        3259.82     
  1729.32        500.000        3261.73     
  1726.82        500.000        3262.66     
  1724.31        500.000        3263.70     
  1721.80        500.000        3265.78     
  1719.30        500.000        3266.94     
  1716.79        500.000        3268.59     
  1714.29        500.000        3268.45     
  1711.78        500.000        3270.80     
  1709.27        500.000        3272.01     
  1706.77        500.000        3273.37     
  1704.26        500.000        3274.66     
  1701.75        500.000        3275.71     
  1699.25        500.000        3277.22     
  1696.74        500.000        3278.62     
  1694.24        500.000        3280.08     
  1691.73        500.000        3280.98     
  1689.22        500.000        3282.53     
  1686.72        500.000        3284.45     
  1684.21        500.000        3285.48     
  1681.70        500.000        3285.91     
  1679.20        500.000        3287.60     
  1676.69        500.000        3288.75     
  1674.19        500.000        3289.45     
  1671.68        500.000        3290.70     
  1669.17        500.000        3292.20     
  1666.67        500.000        3292.89     
  1664.16        500.000        3294.57     
  1661.65        500.000        3295.21     
  1659.15        500.000        3296.61     
  1656.64        500.000        3316.88     
  1654.14        500.000        3283.02     
  1651.63        500.000        3295.92     
  1649.12        500.000        3235.93     
  1646.62        500.000        3374.73     
  1644.11        500.000        3211.23     
  1641.60        500.000        3211.67     
  1639.10        500.000        3212.30     
  1636.59        500.000        3213.35     
  1634.09        500.000        3217.38     
  1631.58        500.000        3214.64     
  1629.07        500.000        3215.43     
  1626.57        500.000        3216.56     
  1624.06        500.000        3217.48     
  1621.55        500.000        3216.60     
  1619.05        500.000        3218.99     
  1616.54        500.000        3218.41     
  1614.04        500.000        3220.29     
  1611.53        500.000        3220.98     
  1609.02        500.000        3220.38     
  1606.52        500.000        3222.41     
  1604.01        500.000        3222.91     
  1601.50        500.000        3222.83     
  1599.00        500.000        3224.36     
  1596.49        500.000        3224.09     
  1593.98        500.000        3225.16     
  1591.48        500.000        3226.34     
  1588.97        500.000        3226.83     
  1586.47        500.000        3228.01     
  1583.96        500.000        3227.89     
  1581.45        500.000        3228.53     
  1578.95        500.000        3229.78     
  1576.44        500.000        3229.96     
  1573.93        500.000        3230.45     
  1571.43        500.000        3231.15     
  1568.92        500.000        3231.76     
  1566.42        500.000        3233.03     
  1563.91        500.000        3232.57     
  1561.40        500.000        3233.61     
  1558.90        500.000        3234.66     
  1556.39        500.000        3235.23     
  1553.88        500.000        3251.53     
  1551.38        500.000        3237.24     
  1548.87        500.000        3237.73     
  1546.37        500.000        3238.34     
  1543.86        500.000        3238.81     
  1541.35        500.000        3240.25     
  1538.85        500.000        3240.40     
  1536.34        500.000        3244.88     
  1533.83        500.000        3242.28     
  1531.33        500.000        3244.52     
  1528.82        500.000        3243.62     
  1526.32        500.000        3245.04     
  1523.81        500.000        3246.17     
  1521.30        500.000        3246.74     
  1518.80        500.000        3247.89     
  1516.29        500.000        3248.57     
  1513.78        500.000        3249.51     
  1511.28        500.000        3250.73     
  1508.77        500.000        3245.59     
  1506.27        500.000        3240.91     
  1503.76        500.000        3242.21     
  1501.25        500.000        3243.46     
  1498.75        500.000        3245.24     
  1496.24        500.000        3246.32     
  1493.73        500.000        3247.93     
  1491.23        500.000        3250.09     
  1488.72        500.000        3250.75     
  1486.22        500.000        3252.51     
  1483.71        500.000        3253.56     
  1481.20        500.000        3254.96     
  1478.70        500.000        3256.62     
  1476.19        500.000        3258.42     
  1473.68        500.000        3258.75     
  1471.18        500.000        3255.19     
  1468.67        500.000        3246.26     
  1466.17        500.000        3248.18     
  1463.66        500.000        3250.09     
  1461.15        500.000        3251.87     
  1458.65        500.000        3254.30     
  1456.14        500.000        3255.85     
  1453.63        500.000        3257.37     
  1451.13        500.000        3259.50     
  1448.62        500.000        3261.51     
  1446.12        500.000        3263.38     
  1443.61        500.000        3126.67     
  1441.10        500.000        3089.85     
  1438.60        500.000        3092.31     
  1436.09        500.000        3094.88     
  1433.58        500.000        3097.33     
  1431.08        500.000        3100.11     
  1428.57        500.000        3102.68     
  1426.07        500.000        3105.28     
  1423.56        500.000        3107.74     
  1421.05        500.000        3110.55     
  1418.55        500.000        3113.01     
  1416.04        500.000        3115.62     
  1413.53        500.000        3118.03     
  1411.03        500.000        3145.78     
  1408.52        500.000        2733.67     
  1406.02        500.000        2734.04     
  1403.51        500.000        3223.49     
  1401.00        500.000        3128.05     
  1398.50        500.000        3130.54     
  1395.99        500.000        3133.04     
  1393.48        500.000        3169.52     
  1390.98        500.000        3197.91     
  1388.47        500.000        3198.30     
  1385.96        500.000        3198.73     
  1383.46        500.000        3199.13     
  1380.95        500.000        3199.52     
  1378.45        500.000        3199.96     
  1375.94        500.000        3200.31     
  1373.43        500.000        3200.73     
  1370.93        500.000        3201.08     
  1368.42        500.000        3201.42     
  1365.91        500.000        3201.78     
  1363.41        500.000        3202.15     
  1360.90        500.000        3202.33     
  1358.40        500.000        3202.60     
  1355.89        500.000        3202.85     
  1353.38        500.000        3203.06     
  1350.88        500.000        3203.24     
  1348.37        500.000        3203.39     
  1345.86        500.000        3203.54     
  1343.36        500.000        3203.61     
  1340.85        500.000        3203.65     
  1338.35        500.000        3203.65     
  1335.84        500.000        3203.65     
  1333.33        500.000        3203.64     
  1330.83        500.000        3203.47     
  1328.32        500.000        3203.37     
  1325.81        500.000        3203.11     
  1323.31        500.000        3202.89     
  1320.80        500.000        3202.56     
  1318.30        500.000        3141.31     
  1315.79        500.000        3273.54     
  1313.28        500.000        3201.38     
  1310.78        500.000        3200.71     
  1308.27        500.000        3202.10     
  1305.76        500.000        3275.44     
  1303.26        500.000        3244.13     
  1300.75        500.000        3206.03     
  1298.25        500.000        3208.46     
  1295.74        500.000        3210.55     
  1293.23        500.000        3212.97     
  1290.73        500.000        3215.41     
  1288.22        500.000        3217.60     
  1285.71        500.000        3219.87     
  1283.21        500.000        3222.25     
  1280.70        500.000        3223.76     
  1278.20        500.000        2873.53     
  1275.69        500.000        2781.34     
  1273.18        500.000        2783.86     
  1270.68        500.000        2785.84     
  1268.17        500.000        2787.92     
  1265.66        500.000        2789.72     
  1263.16        500.000        2792.07     
  1260.65        500.000        2793.38     
  1258.15        500.000        2794.81     
  1255.64        500.000        2796.40     
  1253.13        500.000        2797.85     
  1250.63        500.000        2799.09     
  1248.12        500.000        2800.43     
  1245.61        500.000        2801.98     
  1243.11        500.000        2803.25     
  1240.60        500.000        2804.68     
  1238.10        500.000        2805.81     
  1235.59        500.000        2807.04     
  1233.08        500.000        2808.39     
  1230.58        500.000        2809.57     
  1228.07        500.000        2816.39     
  1225.56        500.000        2818.91     
  1223.06        500.000        2818.05     
  1220.55        500.000        2818.91     
  1218.05        500.000        2817.40     
  1215.54        500.000        2817.50     
  1213.03        500.000        2685.15     
  1210.53        500.000        2662.70     
  1208.02        500.000        2665.64     
  1205.51        500.000        2656.29     
  1203.01        500.000        2673.33     
  1200.50        500.000        2677.27     
  1197.99        500.000        2652.16     
  1195.49        500.000        2671.81     
  1192.98        500.000        2647.87     
  1190.48        500.000        2630.51     
  1187.97        500.000        2630.53     
  1185.46        500.000        2630.66     
  1182.96        500.000        2630.74     
  1180.45        500.000        2630.85     
  1177.94        500.000        2630.96     
  1175.44        500.000        2631.06     
  1172.93        500.000        2631.19     
  1170.43        500.000        2631.29     
  1167.92        500.000        2631.40     
  1165.41        500.000        2631.51     
  1162.91        500.000        2631.62     
  1160.40        500.000        2631.73     
  1157.89        500.000        2631.84     
  1155.39        500.000        2631.95     
  1152.88        500.000        2632.05     
  1150.38        500.000        2632.16     
  1147.87        500.000        2632.27     
  1145.36        500.000        2632.38     
  1142.86        500.000        2632.49     
  1140.35        500.000        2632.60     
  1137.84        500.000        2632.71     
  1135.34        500.000        2632.82     
  1132.83        500.000        2632.93     
  1130.33        500.000        2633.04     
  1127.82        500.000        2633.14     
  1125.31        500.000        2633.23     
  1122.81        500.000        2633.28     
  1120.30        500.000        2633.34     
  1117.79        500.000        2633.39     
  1115.29        500.000        2633.70     
  1112.78        500.000        2633.80     
  1110.28        500.000        2633.91     
  1107.77        500.000        2634.02     
  1105.26        500.000        2634.13     
  1102.76        500.000        2634.24     
  1100.25        500.000        2634.35     
  1097.74        500.000        2634.46     
  1095.24        500.000        2634.57     
  1092.73        500.000        2634.68     
  1090.23        500.000        2634.80     
  1087.72        500.000        2634.94     
  1085.21        500.000        2635.01     
  1082.71        500.000        2635.12     
  1080.20        500.000        2634.33     
  1077.69        500.000        2635.40     
  1075.19        500.000        2634.48     
  1072.68        500.000        2635.60     
  1070.18        500.000        2635.70     
  1067.67        500.000        2635.82     
  1065.16        500.000        2635.92     
  1062.66        500.000        2636.00     
  1060.15        500.000        2636.14     
  1057.64        500.000        2636.22     
  1055.14        500.000        2636.04     
  1052.63        500.000        2633.54     
  1050.13        500.000        2633.62     
  1047.62        500.000        2633.70     
  1045.11        500.000        2633.78     
  1042.61        500.000        2633.86     
  1040.10        500.000        2633.95     
  1037.59        500.000        2634.02     
  1035.09        500.000        2634.11     
  1032.58        500.000        2634.19     
  1030.08        500.000        2634.27     
  1027.57        500.000        2634.35     
  1025.06        500.000        2634.44     
  1022.56        500.000        2634.52     
  1020.05        500.000        2634.60     
  1017.54        500.000        2634.69     
  1015.04        500.000        2634.77     
  1012.53        500.000        2634.86     
  1010.03        500.000        2634.94     
  1007.52        500.000        2635.03     
  1005.01        500.000        2635.11     
  1002.51        500.000        2635.20     
  1000.00        500.000        2635.29     
