|6.6.6
Archiving\03_Data\eq/QFM_m0.25/Y98/Y98_6.tab                              
           1
T(K)    
  0.000000000000000E+000
  0.000000000000000E+000
           0
           3
T(K)           P(bar)         rho,kg/m3     
  2000.00        2500.00        3611.47     
  1996.79        2500.00        3611.95     
  1993.59        2500.00        3612.43     
  1990.38        2500.00        3612.91     
  1987.18        2500.00        3613.38     
  1983.97        2500.00        3613.86     
  1980.77        2500.00        3614.34     
  1977.56        2500.00        3614.82     
  1974.36        2500.00        3615.30     
  1971.15        2500.00        3615.78     
  1967.95        2500.00        3616.25     
  1964.74        2500.00        3616.73     
  1961.54        2500.00        3617.21     
  1958.33        2500.00        3617.68     
  1955.13        2500.00        3618.16     
  1951.92        2500.00        3618.64     
  1948.72        2500.00        3619.11     
  1945.51        2500.00        3619.59     
  1942.31        2500.00        3620.06     
  1939.10        2500.00        3620.54     
  1935.90        2500.00        3621.02     
  1932.69        2500.00        3621.49     
  1929.49        2500.00        3621.97     
  1926.28        2500.00        3622.44     
  1923.08        2500.00        3622.92     
  1919.87        2500.00        3623.39     
  1916.67        2500.00        3623.86     
  1913.46        2500.00        3624.34     
  1910.26        2500.00        3624.81     
  1907.05        2500.00        3625.28     
  1903.85        2500.00        3625.76     
  1900.64        2500.00        3626.23     
  1897.44        2500.00        3626.70     
  1894.23        2500.00        3627.18     
  1891.03        2500.00        3585.74     
  1887.82        2500.00        3585.90     
  1884.62        2500.00        3586.06     
  1881.41        2500.00        3586.19     
  1878.21        2500.00        3586.32     
  1875.00        2500.00        3586.45     
  1871.79        2500.00        3586.59     
  1868.59        2500.00        3586.67     
  1865.38        2500.00        3586.76     
  1862.18        2500.00        3586.85     
  1858.97        2500.00        3586.94     
  1855.77        2500.00        3587.03     
  1852.56        2500.00        3587.12     
  1849.36        2500.00        3587.21     
  1846.15        2500.00        3587.30     
  1842.95        2500.00        3587.30     
  1839.74        2500.00        3587.31     
  1836.54        2500.00        3587.31     
  1833.33        2500.00        3587.32     
  1830.13        2500.00        3587.33     
  1826.92        2500.00        3587.34     
  1823.72        2500.00        3587.35     
  1820.51        2500.00        3587.36     
  1817.31        2500.00        3587.23     
  1814.10        2500.00        3587.10     
  1810.90        2500.00        3586.98     
  1807.69        2500.00        3586.85     
  1804.49        2500.00        3586.73     
  1801.28        2500.00        3586.61     
  1798.08        2500.00        3586.49     
  1794.87        2500.00        3586.38     
  1791.67        2500.00        3586.04     
  1788.46        2500.00        3585.70     
  1785.26        2500.00        3585.37     
  1782.05        2500.00        3585.05     
  1778.85        2500.00        3584.73     
  1775.64        2500.00        3584.41     
  1772.44        2500.00        3584.10     
  1769.23        2500.00        3583.79     
  1766.03        2500.00        3583.18     
  1762.82        2500.00        3582.58     
  1759.62        2500.00        3581.99     
  1756.41        2500.00        3581.41     
  1753.21        2500.00        3580.83     
  1750.00        2500.00        3580.26     
  1746.79        2500.00        3579.70     
  1743.59        2500.00        3579.15     
  1740.38        2500.00        3578.01     
  1737.18        2500.00        3576.89     
  1733.97        2500.00        3575.79     
  1730.77        2500.00        3574.71     
  1727.56        2500.00        3573.65     
  1724.36        2500.00        3572.60     
  1721.15        2500.00        3571.57     
  1717.95        2500.00        3570.56     
  1714.74        2500.00        3568.86     
  1711.54        2500.00        3568.36     
  1708.33        2500.00        3577.75     
  1705.13        2500.00        3586.79     
  1701.92        2500.00        3594.22     
  1698.72        2500.00        3601.33     
  1695.51        2500.00        3608.16     
  1692.31        2500.00        3614.71     
  1689.10        2500.00        3617.95     
  1685.90        2500.00        3621.04     
  1682.69        2500.00        3623.98     
  1679.49        2500.00        3626.79     
  1676.28        2500.00        3629.48     
  1673.08        2500.00        3632.05     
  1669.87        2500.00        3634.52     
  1666.67        2500.00        3636.89     
  1663.46        2500.00        3625.24     
  1660.26        2500.00        3615.08     
  1657.05        2500.00        3606.17     
  1653.85        2500.00        3598.29     
  1650.64        2500.00        3591.28     
  1647.44        2500.00        3585.02     
  1644.23        2500.00        3579.39     
  1641.03        2500.00        3574.31     
  1637.82        2500.00        3551.30     
  1634.62        2500.00        3533.30     
  1631.41        2500.00        3518.86     
  1628.21        2500.00        3507.04     
  1625.00        2500.00        3490.95     
  1621.79        2500.00        3478.42     
  1618.59        2500.00        3453.80     
  1615.38        2500.00        3401.64     
  1612.18        2500.00        3376.45     
  1608.97        2500.00        3359.20     
  1605.77        2500.00        3346.69     
  1602.56        2500.00        3337.24     
  1599.36        2500.00        3329.89     
  1596.15        2500.00        3324.02     
  1592.95        2500.00        3319.26     
  1589.74        2500.00        3315.33     
  1586.54        2500.00        3313.87     
  1583.33        2500.00        3312.62     
  1580.13        2500.00        3311.56     
  1576.92        2500.00        3310.65     
  1573.72        2500.00        3309.87     
  1570.51        2500.00        3309.21     
  1567.31        2500.00        3308.64     
  1564.10        2500.00        3308.16     
  1560.90        2500.00        3308.41     
  1557.69        2500.00        3308.67     
  1554.49        2500.00        3308.95     
  1551.28        2500.00        3309.24     
  1548.08        2500.00        3309.54     
  1544.87        2500.00        3309.85     
  1541.67        2500.00        3310.17     
  1538.46        2500.00        3310.50     
  1535.26        2500.00        3311.10     
  1532.05        2500.00        3311.68     
  1528.85        2500.00        3312.27     
  1525.64        2500.00        3312.85     
  1522.44        2500.00        3313.62     
  1519.23        2500.00        3314.52     
  1516.03        2500.00        3315.46     
  1512.82        2500.00        3316.38     
  1509.62        2500.00        3317.35     
  1506.41        2500.00        3318.30     
  1503.21        2500.00        3319.23     
  1500.00        2500.00        3320.15     
  1496.79        2500.00        3320.97     
  1493.59        2500.00        3322.06     
  1490.38        2500.00        3323.37     
  1487.18        2500.00        3324.63     
  1483.97        2500.00        3325.98     
  1480.77        2500.00        3327.28     
  1477.56        2500.00        3328.54     
  1474.36        2500.00        3329.76     
  1471.15        2500.00        3331.08     
  1467.95        2500.00        3332.26     
  1464.74        2500.00        3332.70     
  1461.54        2500.00        3334.76     
  1458.33        2500.00        3335.20     
  1455.13        2500.00        3335.64     
  1451.92        2500.00        3336.08     
  1448.72        2500.00        3336.52     
  1445.51        2500.00        3336.96     
  1442.31        2500.00        3337.40     
  1439.10        2500.00        3337.84     
  1435.90        2500.00        3343.83     
  1432.69        2500.00        3344.27     
  1429.49        2500.00        3345.73     
  1426.28        2500.00        3346.62     
  1423.08        2500.00        3347.51     
  1419.87        2500.00        3346.18     
  1416.67        2500.00        3344.31     
  1413.46        2500.00        3344.75     
  1410.26        2500.00        3341.02     
  1407.05        2500.00        3341.45     
  1403.85        2500.00        3341.88     
  1400.64        2500.00        3342.31     
  1397.44        2500.00        3342.74     
  1394.23        2500.00        3343.17     
  1391.03        2500.00        3343.60     
  1387.82        2500.00        3344.02     
  1384.62        2500.00        3330.88     
  1381.41        2500.00        3331.30     
  1378.21        2500.00        3331.72     
  1375.00        2500.00        3332.14     
  1371.79        2500.00        3332.56     
  1368.59        2500.00        3332.98     
  1365.38        2500.00        3333.40     
  1362.18        2500.00        3333.82     
  1358.97        2500.00        3322.88     
  1355.77        2500.00        3321.96     
  1352.56        2500.00        3321.90     
  1349.36        2500.00        3322.31     
  1346.15        2500.00        3322.11     
  1342.95        2500.00        3322.52     
  1339.74        2500.00        3322.93     
  1336.54        2500.00        3323.34     
  1333.33        2500.00        3322.60     
  1330.13        2500.00        3323.01     
  1326.92        2500.00        3323.41     
  1323.72        2500.00        3323.82     
  1320.51        2500.00        3324.23     
  1317.31        2500.00        3324.64     
  1314.10        2500.00        3325.05     
  1310.90        2500.00        3325.45     
  1307.69        2500.00        3323.64     
  1304.49        2500.00        3324.04     
  1301.28        2500.00        3324.45     
  1298.08        2500.00        3324.85     
  1294.87        2500.00        3325.26     
  1291.67        2500.00        3325.66     
  1288.46        2500.00        3326.07     
  1285.26        2500.00        3326.47     
  1282.05        2500.00        3324.84     
  1278.85        2500.00        3325.24     
  1275.64        2500.00        3325.65     
  1272.44        2500.00        3326.05     
  1269.23        2500.00        3326.45     
  1266.03        2500.00        3326.85     
  1262.82        2500.00        3327.25     
  1259.62        2500.00        3327.65     
  1256.41        2500.00        3326.18     
  1253.21        2500.00        3326.58     
  1250.00        2500.00        3326.98     
  1246.79        2500.00        3327.38     
  1243.59        2500.00        3327.78     
  1240.38        2500.00        3328.17     
  1237.18        2500.00        3328.57     
  1233.97        2500.00        3328.97     
  1230.77        2500.00        3327.63     
  1227.56        2500.00        3328.03     
  1224.36        2500.00        3328.43     
  1221.15        2500.00        3328.82     
  1217.95        2500.00        3329.22     
  1214.74        2500.00        3329.61     
  1211.54        2500.00        3330.01     
  1208.33        2500.00        3330.40     
  1205.13        2500.00        3329.21     
  1201.92        2500.00        3329.60     
  1198.72        2500.00        3330.00     
  1195.51        2500.00        3330.39     
  1192.31        2500.00        3330.78     
  1189.10        2500.00        3331.17     
  1185.90        2500.00        3331.57     
  1182.69        2500.00        3331.96     
  1179.49        2500.00        3330.90     
  1176.28        2500.00        3331.29     
  1173.08        2500.00        3331.68     
  1169.87        2500.00        3332.07     
  1166.67        2500.00        3332.46     
  1163.46        2500.00        3332.85     
  1160.26        2500.00        3333.24     
  1157.05        2500.00        3333.63     
  1153.85        2500.00        3332.70     
  1150.64        2500.00        3333.09     
  1147.44        2500.00        3333.48     
  1144.23        2500.00        3333.87     
  1141.03        2500.00        3334.25     
  1137.82        2500.00        3334.64     
  1134.62        2500.00        3335.03     
  1131.41        2500.00        3335.41     
  1128.21        2500.00        3334.63     
  1125.00        2500.00        3335.01     
  1121.79        2500.00        3335.40     
  1118.59        2500.00        3335.78     
  1115.38        2500.00        3336.17     
  1112.18        2500.00        3336.55     
  1108.97        2500.00        3336.94     
  1105.77        2500.00        3337.32     
  1102.56        2500.00        3336.63     
  1099.36        2500.00        3337.02     
  1096.15        2500.00        3337.40     
  1092.95        2500.00        3337.78     
  1089.74        2500.00        3338.16     
  1086.54        2500.00        3338.54     
  1083.33        2500.00        3338.92     
  1080.13        2500.00        3339.31     
  1076.92        2500.00        3338.75     
  1073.72        2500.00        3339.13     
  1070.51        2500.00        3339.51     
  1067.31        2500.00        3339.89     
  1064.10        2500.00        3340.27     
  1060.90        2500.00        3340.65     
  1057.69        2500.00        3341.03     
  1054.49        2500.00        3341.41     
  1051.28        2500.00        3340.95     
  1048.08        2500.00        3341.33     
  1044.87        2500.00        3341.70     
  1041.67        2500.00        3342.08     
  1038.46        2500.00        3342.46     
  1035.26        2500.00        3342.83     
  1032.05        2500.00        3343.21     
  1028.85        2500.00        3343.58     
  1025.64        2500.00        3343.25     
  1022.44        2500.00        3343.62     
  1019.23        2500.00        3344.00     
  1016.03        2500.00        3344.37     
  1012.82        2500.00        3344.44     
  1009.62        2500.00        3344.81     
  1006.41        2500.00        3345.06     
  1003.21        2500.00        3345.37     
  1000.00        2500.00        3345.76     
