|6.6.6
Archiving\03_Data\DfracLP/QFM_m1.5/K22/K22_6.tab                      
           1
T(K)    
  0.000000000000000E+000
  0.000000000000000E+000
           0
           3
T(K)           P(bar)         rho,kg/m3     
  2000.00        500.000        8099.88     
  1997.49        500.000        8101.32     
  1994.99        500.000        8102.75     
  1992.48        500.000        8104.18     
  1989.97        500.000        8105.61     
  1987.47        500.000        8107.04     
  1984.96        500.000        8108.47     
  1982.46        500.000        8109.90     
  1979.95        500.000        8111.32     
  1977.44        500.000        8112.75     
  1974.94        500.000        8114.18     
  1972.43        500.000        8115.60     
  1969.92        500.000        8117.02     
  1967.42        500.000        3258.30     
  1964.91        500.000        2896.08     
  1962.41        500.000        2896.67     
  1959.90        500.000        2897.25     
  1957.39        500.000        2897.84     
  1954.89        500.000        2898.42     
  1952.38        500.000        2899.01     
  1949.87        500.000        2899.59     
  1947.37        500.000        2900.18     
  1944.86        500.000        2900.76     
  1942.36        500.000        2901.35     
  1939.85        500.000        2901.93     
  1937.34        500.000        3118.11     
  1934.84        500.000        3119.68     
  1932.33        500.000        3121.09     
  1929.82        500.000        3122.68     
  1927.32        500.000        3123.71     
  1924.81        500.000        3125.10     
  1922.31        500.000        3126.53     
  1919.80        500.000        3127.78     
  1917.29        500.000        3129.27     
  1914.79        500.000        3130.36     
  1912.28        500.000        3132.18     
  1909.77        500.000        3133.79     
  1907.27        500.000        3135.08     
  1904.76        500.000        3136.55     
  1902.26        500.000        3151.17     
  1899.75        500.000        3161.44     
  1897.24        500.000        3162.58     
  1894.74        500.000        3164.38     
  1892.23        500.000        3166.33     
  1889.72        500.000        3167.38     
  1887.22        500.000        3174.03     
  1884.71        500.000        3169.56     
  1882.21        500.000        3172.02     
  1879.70        500.000        3174.21     
  1877.19        500.000        3181.50     
  1874.69        500.000        3174.80     
  1872.18        500.000        3177.94     
  1869.67        500.000        3179.87     
  1867.17        500.000        3181.46     
  1864.66        500.000        3183.12     
  1862.16        500.000        3185.00     
  1859.65        500.000        3186.53     
  1857.14        500.000        3187.54     
  1854.64        500.000        3189.38     
  1852.13        500.000        3190.96     
  1849.62        500.000        3192.18     
  1847.12        500.000        3194.17     
  1844.61        500.000        3196.02     
  1842.11        500.000        3197.47     
  1839.60        500.000        3198.44     
  1837.09        500.000        3203.93     
  1834.59        500.000        3201.74     
  1832.08        500.000        3198.43     
  1829.57        500.000        3204.41     
  1827.07        500.000        3206.93     
  1824.56        500.000        3203.72     
  1822.06        500.000        3209.99     
  1819.55        500.000        3211.43     
  1817.04        500.000        3213.29     
  1814.54        500.000        3214.92     
  1812.03        500.000        3216.41     
  1809.52        500.000        3217.99     
  1807.02        500.000        3220.35     
  1804.51        500.000        3219.95     
  1802.01        500.000        3222.71     
  1799.50        500.000        3223.81     
  1796.99        500.000        3226.20     
  1794.49        500.000        3227.44     
  1791.98        500.000        3228.16     
  1789.47        500.000        3230.50     
  1786.97        500.000        3232.55     
  1784.46        500.000        3234.27     
  1781.95        500.000        3235.58     
  1779.45        500.000        3237.34     
  1776.94        500.000        3239.07     
  1774.44        500.000        3240.34     
  1771.93        500.000        3242.08     
  1769.42        500.000        3243.29     
  1766.92        500.000        3244.66     
  1764.41        500.000        3247.29     
  1761.90        500.000        3247.94     
  1759.40        500.000        3248.97     
  1756.89        500.000        3251.39     
  1754.39        500.000        3250.51     
  1751.88        500.000        3257.31     
  1749.37        500.000        2907.00     
  1746.87        500.000        3257.62     
  1744.36        500.000        3259.76     
  1741.85        500.000        3260.93     
  1739.35        500.000        3262.59     
  1736.84        500.000        3264.03     
  1734.34        500.000        3265.82     
  1731.83        500.000        3267.07     
  1729.32        500.000        3270.03     
  1726.82        500.000        3270.12     
  1724.31        500.000        3272.80     
  1721.80        500.000        3273.70     
  1719.30        500.000        3276.14     
  1716.79        500.000        3277.26     
  1714.29        500.000        3278.38     
  1711.78        500.000        3280.87     
  1709.27        500.000        3283.21     
  1706.77        500.000        3283.19     
  1704.26        500.000        3284.96     
  1701.75        500.000        3286.17     
  1699.25        500.000        3286.80     
  1696.74        500.000        3289.88     
  1694.24        500.000        3292.10     
  1691.73        500.000        3295.61     
  1689.22        500.000        3292.64     
  1686.72        500.000        3295.19     
  1684.21        500.000        3297.10     
  1681.70        500.000        3298.70     
  1679.20        500.000        3299.68     
  1676.69        500.000        3301.36     
  1674.19        500.000        3303.56     
  1671.68        500.000        3304.97     
  1669.17        500.000        3305.28     
  1666.67        500.000        3307.60     
  1664.16        500.000        3309.34     
  1661.65        500.000        3312.14     
  1659.15        500.000        3324.48     
  1656.64        500.000        3306.04     
  1654.14        500.000        3315.04     
  1651.63        500.000        3318.76     
  1649.12        500.000        3319.51     
  1646.62        500.000        3320.23     
  1644.11        500.000        3320.52     
  1641.60        500.000        3322.02     
  1639.10        500.000        3323.94     
  1636.59        500.000        3324.90     
  1634.09        500.000        3327.51     
  1631.58        500.000        3327.91     
  1629.07        500.000        3330.04     
  1626.57        500.000        3330.95     
  1624.06        500.000        3331.93     
  1621.55        500.000        3334.00     
  1619.05        500.000        3334.63     
  1616.54        500.000        3336.72     
  1614.04        500.000        3338.09     
  1611.53        500.000        3247.13     
  1609.02        500.000        3235.15     
  1606.52        500.000        3236.24     
  1604.01        500.000        3237.18     
  1601.50        500.000        3237.98     
  1599.00        500.000        3240.10     
  1596.49        500.000        3239.81     
  1593.98        500.000        3240.62     
  1591.48        500.000        3238.97     
  1588.97        500.000        3243.06     
  1586.47        500.000        3243.55     
  1583.96        500.000        3244.72     
  1581.45        500.000        3245.11     
  1578.95        500.000        3246.15     
  1576.44        500.000        3247.39     
  1573.93        500.000        3247.49     
  1571.43        500.000        3248.58     
  1568.92        500.000        3250.05     
  1566.42        500.000        3249.64     
  1563.91        500.000        3252.94     
  1561.40        500.000        3252.30     
  1558.90        500.000        3252.48     
  1556.39        500.000        3254.06     
  1553.88        500.000        3254.33     
  1551.38        500.000        3255.15     
  1548.87        500.000        3256.11     
  1546.37        500.000        3257.02     
  1543.86        500.000        3258.61     
  1541.35        500.000        3259.00     
  1538.85        500.000        3260.06     
  1536.34        500.000        3259.64     
  1533.83        500.000        3260.70     
  1531.33        500.000        3261.88     
  1528.82        500.000        3263.13     
  1526.32        500.000        3263.43     
  1523.81        500.000        3265.99     
  1521.30        500.000        3265.39     
  1518.80        500.000        3267.41     
  1516.29        500.000        3267.96     
  1513.78        500.000        3268.66     
  1511.28        500.000        3283.40     
  1508.77        500.000        3280.04     
  1506.27        500.000        3272.44     
  1503.76        500.000        3273.20     
  1501.25        500.000        3274.01     
  1498.75        500.000        3275.42     
  1496.24        500.000        3276.53     
  1493.73        500.000        3278.03     
  1491.23        500.000        3278.69     
  1488.72        500.000        3279.30     
  1486.22        500.000        3280.93     
  1483.71        500.000        3268.00     
  1481.20        500.000        3267.56     
  1478.70        500.000        3268.63     
  1476.19        500.000        3270.09     
  1473.68        500.000        3271.47     
  1471.18        500.000        3273.57     
  1468.67        500.000        3274.59     
  1466.17        500.000        3276.36     
  1463.66        500.000        3277.79     
  1461.15        500.000        3275.35     
  1458.65        500.000        3262.05     
  1456.14        500.000        3264.45     
  1453.63        500.000        3266.10     
  1451.13        500.000        3268.34     
  1448.62        500.000        3270.41     
  1446.12        500.000        3272.57     
  1443.61        500.000        3274.71     
  1441.10        500.000        3277.08     
  1438.60        500.000        3279.32     
  1436.09        500.000        3281.61     
  1433.58        500.000        3283.61     
  1431.08        500.000        3286.07     
  1428.57        500.000        3287.97     
  1426.07        500.000        3290.32     
  1423.56        500.000        3186.83     
  1421.05        500.000        3113.52     
  1418.55        500.000        3116.12     
  1416.04        500.000        3118.89     
  1413.53        500.000        3121.51     
  1411.03        500.000        3124.12     
  1408.52        500.000        3126.90     
  1406.02        500.000        3129.72     
  1403.51        500.000        3132.39     
  1401.00        500.000        3134.97     
  1398.50        500.000        3137.73     
  1395.99        500.000        3140.44     
  1393.48        500.000        3143.12     
  1390.98        500.000        3145.81     
  1388.47        500.000        3148.46     
  1385.96        500.000        3151.15     
  1383.46        500.000        3153.99     
  1380.95        500.000        3156.64     
  1378.45        500.000        3159.33     
  1375.94        500.000        3161.79     
  1373.43        500.000        3164.74     
  1370.93        500.000        3167.23     
  1368.42        500.000        3170.02     
  1365.91        500.000        3172.86     
  1363.41        500.000        3183.57     
  1360.90        500.000        3208.08     
  1358.40        500.000        3211.89     
  1355.89        500.000        3215.81     
  1353.38        500.000        3219.72     
  1350.88        500.000        3223.48     
  1348.37        500.000        3227.26     
  1345.86        500.000        3231.18     
  1343.36        500.000        3235.17     
  1340.85        500.000        3238.51     
  1338.35        500.000        3242.32     
  1335.84        500.000        3245.91     
  1333.33        500.000        3249.62     
  1330.83        500.000        3252.86     
  1328.32        500.000        3256.29     
  1325.81        500.000        3259.57     
  1323.31        500.000        3262.76     
  1320.80        500.000        3265.87     
  1318.30        500.000        3268.88     
  1315.79        500.000        3271.72     
  1313.28        500.000        3274.38     
  1310.78        500.000        3277.00     
  1308.27        500.000        3283.53     
  1305.76        500.000        3298.61     
  1303.26        500.000        3284.63     
  1300.75        500.000        3290.95     
  1298.25        500.000        3297.95     
  1295.74        500.000        3444.37     
  1293.23        500.000        3329.27     
  1290.73        500.000        3122.05     
  1288.22        500.000        3178.88     
  1285.71        500.000        3259.93     
  1283.21        500.000        3309.94     
  1280.70        500.000        3285.18     
  1278.20        500.000        3458.41     
  1275.69        500.000        3232.38     
  1273.18        500.000        3212.72     
  1270.68        500.000        3227.05     
  1268.17        500.000        3245.80     
  1265.66        500.000        3247.34     
  1263.16        500.000        3249.28     
  1260.65        500.000        3250.85     
  1258.15        500.000        3251.50     
  1255.64        500.000        2864.65     
  1253.13        500.000        2798.40     
  1250.63        500.000        2800.18     
  1248.12        500.000        2801.98     
  1245.61        500.000        2803.72     
  1243.11        500.000        2805.12     
  1240.60        500.000        2809.18     
  1238.10        500.000        2815.37     
  1235.59        500.000        2814.97     
  1233.08        500.000        2814.46     
  1230.58        500.000        2814.72     
  1228.07        500.000        2814.80     
  1225.56        500.000        2814.90     
  1223.06        500.000        2815.05     
  1220.55        500.000        2815.09     
  1218.05        500.000        2815.36     
  1215.54        500.000        2815.32     
  1213.03        500.000        2815.38     
  1210.53        500.000        2814.96     
  1208.02        500.000        2779.73     
  1205.51        500.000        3010.28     
  1203.01        500.000        2794.46     
  1200.50        500.000        2844.09     
  1197.99        500.000        2831.57     
  1195.49        500.000        2778.21     
  1192.98        500.000        2721.76     
  1190.48        500.000        2965.88     
  1187.97        500.000        2663.47     
  1185.46        500.000        2635.52     
  1182.96        500.000        2635.66     
  1180.45        500.000        2635.74     
  1177.94        500.000        2635.88     
  1175.44        500.000        2635.99     
  1172.93        500.000        2636.07     
  1170.43        500.000        2636.23     
  1167.92        500.000        2636.31     
  1165.41        500.000        2636.40     
  1162.91        500.000        2636.55     
  1160.40        500.000        2636.62     
  1157.89        500.000        2636.76     
  1155.39        500.000        2635.29     
  1152.88        500.000        2636.94     
  1150.38        500.000        2637.06     
  1147.87        500.000        2633.39     
  1145.36        500.000        2633.70     
  1142.86        500.000        2633.79     
  1140.35        500.000        2633.83     
  1137.84        500.000        2633.79     
  1135.34        500.000        2633.81     
  1132.83        500.000        2633.85     
  1130.33        500.000        2633.89     
  1127.82        500.000        2633.96     
  1125.31        500.000        2634.03     
  1122.81        500.000        2634.06     
  1120.30        500.000        2634.09     
  1117.79        500.000        2634.21     
  1115.29        500.000        2634.41     
  1112.78        500.000        2634.37     
  1110.28        500.000        2634.46     
  1107.77        500.000        2634.47     
  1105.26        500.000        2634.53     
  1102.76        500.000        2634.62     
  1100.25        500.000        2634.69     
  1097.74        500.000        2634.78     
  1095.24        500.000        2634.86     
  1092.73        500.000        2634.94     
  1090.23        500.000        2635.03     
  1087.72        500.000        2635.10     
  1085.21        500.000        2635.19     
  1082.71        500.000        2635.27     
  1080.20        500.000        2635.10     
  1077.69        500.000        2635.44     
  1075.19        500.000        2635.52     
  1072.68        500.000        2635.61     
  1070.18        500.000        2635.55     
  1067.67        500.000        2635.56     
  1065.16        500.000        2635.70     
  1062.66        500.000        2635.93     
  1060.15        500.000        2636.02     
  1057.64        500.000        2636.11     
  1055.14        500.000        2636.06     
  1052.63        500.000        2636.15     
  1050.13        500.000        2636.24     
  1047.62        500.000        2636.33     
  1045.11        500.000        2636.42     
  1042.61        500.000        2636.52     
  1040.10        500.000        2636.61     
  1037.59        500.000        2636.70     
  1035.09        500.000        2636.79     
  1032.58        500.000        2636.89     
  1030.08        500.000        2636.98     
  1027.57        500.000        2637.07     
  1025.06        500.000        2637.16     
  1022.56        500.000        2637.25     
  1020.05        500.000        2637.35     
  1017.54        500.000        2637.57     
  1015.04        500.000        2637.53     
  1012.53        500.000        2637.75     
  1010.03        500.000        2637.84     
  1007.52        500.000        2637.93     
  1005.01        500.000        2638.02     
  1002.51        500.000        2638.11     
  1000.00        500.000        2638.20     
