|6.6.6
Archiving\03_Data\DfracLP/QFM_m4/WD94/WD94_6.tab                          
           1
T(K)    
  0.000000000000000E+000
  0.000000000000000E+000
           0
           3
T(K)           P(bar)         rho,kg/m3     
  2000.00        500.000        2942.11     
  1997.49        500.000        2942.72     
  1994.99        500.000        2943.33     
  1992.48        500.000        2943.94     
  1989.97        500.000        2944.55     
  1987.47        500.000        2945.16     
  1984.96        500.000        2945.77     
  1982.46        500.000        2946.38     
  1979.95        500.000        2946.99     
  1977.44        500.000        2947.60     
  1974.94        500.000        2948.21     
  1972.43        500.000        2948.82     
  1969.92        500.000        2949.43     
  1967.42        500.000        2950.04     
  1964.91        500.000        2950.65     
  1962.41        500.000        2951.26     
  1959.90        500.000        2951.87     
  1957.39        500.000        2952.48     
  1954.89        500.000        2953.09     
  1952.38        500.000        2953.70     
  1949.87        500.000        2954.31     
  1947.37        500.000        2954.92     
  1944.86        500.000        2955.53     
  1942.36        500.000        2956.14     
  1939.85        500.000        2956.75     
  1937.34        500.000        2957.36     
  1934.84        500.000        2957.97     
  1932.33        500.000        2958.58     
  1929.82        500.000        2959.19     
  1927.32        500.000        2959.80     
  1924.81        500.000        2960.42     
  1922.31        500.000        2961.03     
  1919.80        500.000        2961.64     
  1917.29        500.000        2962.25     
  1914.79        500.000        3165.81     
  1912.28        500.000        3167.35     
  1909.77        500.000        3169.02     
  1907.27        500.000        3171.17     
  1904.76        500.000        3173.30     
  1902.26        500.000        3174.33     
  1899.75        500.000        3176.43     
  1897.24        500.000        3178.49     
  1894.74        500.000        3179.74     
  1892.23        500.000        3181.79     
  1889.72        500.000        3183.23     
  1887.22        500.000        3185.12     
  1884.71        500.000        3187.17     
  1882.21        500.000        3189.12     
  1879.70        500.000        3188.94     
  1877.19        500.000        3192.91     
  1874.69        500.000        3194.63     
  1872.18        500.000        3196.06     
  1869.67        500.000        3197.77     
  1867.17        500.000        3200.26     
  1864.66        500.000        3202.94     
  1862.16        500.000        3214.28     
  1859.65        500.000        3226.72     
  1857.14        500.000        3228.29     
  1854.64        500.000        3231.92     
  1852.13        500.000        3232.59     
  1849.62        500.000        3234.40     
  1847.12        500.000        3236.12     
  1844.61        500.000        3237.89     
  1842.11        500.000        3240.21     
  1839.60        500.000        3241.97     
  1837.09        500.000        3243.80     
  1834.59        500.000        3246.13     
  1832.08        500.000        3248.13     
  1829.57        500.000        3250.10     
  1827.07        500.000        3251.97     
  1824.56        500.000        3253.58     
  1822.06        500.000        3256.28     
  1819.55        500.000        3257.99     
  1817.04        500.000        3259.81     
  1814.54        500.000        3261.01     
  1812.03        500.000        3263.67     
  1809.52        500.000        3266.10     
  1807.02        500.000        3268.09     
  1804.51        500.000        3269.85     
  1802.01        500.000        3270.91     
  1799.50        500.000        3273.90     
  1796.99        500.000        3275.73     
  1794.49        500.000        3276.27     
  1791.98        500.000        3278.89     
  1789.47        500.000        3281.54     
  1786.97        500.000        3283.58     
  1784.46        500.000        3285.74     
  1781.95        500.000        3287.71     
  1779.45        500.000        3289.33     
  1776.94        500.000        3291.88     
  1774.44        500.000        3293.63     
  1771.93        500.000        3295.20     
  1769.42        500.000        3299.41     
  1766.92        500.000        3298.73     
  1764.41        500.000        3302.06     
  1761.90        500.000        3303.09     
  1759.40        500.000        3305.88     
  1756.89        500.000        3307.59     
  1754.39        500.000        3308.75     
  1751.88        500.000        3311.77     
  1749.37        500.000        3313.36     
  1746.87        500.000        3314.85     
  1744.36        500.000        3319.05     
  1741.85        500.000        3320.09     
  1739.35        500.000        3321.89     
  1736.84        500.000        3323.55     
  1734.34        500.000        3325.54     
  1731.83        500.000        3328.70     
  1729.32        500.000        3330.08     
  1726.82        500.000        3332.42     
  1724.31        500.000        3334.08     
  1721.80        500.000        3335.83     
  1719.30        500.000        3338.83     
  1716.79        500.000        3340.68     
  1714.29        500.000        3341.88     
  1711.78        500.000        3343.68     
  1709.27        500.000        3345.17     
  1706.77        500.000        3351.49     
  1704.26        500.000        3348.89     
  1701.75        500.000        3351.66     
  1699.25        500.000        3352.15     
  1696.74        500.000        3355.37     
  1694.24        500.000        3357.25     
  1691.73        500.000        3360.24     
  1689.22        500.000        3361.54     
  1686.72        500.000        3363.98     
  1684.21        500.000        3365.76     
  1681.70        500.000        3378.05     
  1679.20        500.000        2938.66     
  1676.69        500.000        3369.04     
  1674.19        500.000        3372.56     
  1671.68        500.000        3376.37     
  1669.17        500.000        3377.70     
  1666.67        500.000        3378.89     
  1664.16        500.000        3380.22     
  1661.65        500.000        3380.99     
  1659.15        500.000        3383.31     
  1656.64        500.000        3385.44     
  1654.14        500.000        3387.17     
  1651.63        500.000        3388.81     
  1649.12        500.000        3391.55     
  1646.62        500.000        3392.46     
  1644.11        500.000        3393.84     
  1641.60        500.000        3396.28     
  1639.10        500.000        3398.26     
  1636.59        500.000        3399.05     
  1634.09        500.000        3402.03     
  1631.58        500.000        3403.27     
  1629.07        500.000        3405.03     
  1626.57        500.000        3407.48     
  1624.06        500.000        3408.70     
  1621.55        500.000        3410.39     
  1619.05        500.000        3411.82     
  1616.54        500.000        3413.67     
  1614.04        500.000        3415.63     
  1611.53        500.000        3416.62     
  1609.02        500.000        3374.26     
  1606.52        500.000        3280.08     
  1604.01        500.000        3280.98     
  1601.50        500.000        3282.37     
  1599.00        500.000        3283.65     
  1596.49        500.000        3285.13     
  1593.98        500.000        3286.28     
  1591.48        500.000        3286.61     
  1588.97        500.000        3288.31     
  1586.47        500.000        3288.02     
  1583.96        500.000        3291.38     
  1581.45        500.000        3291.93     
  1578.95        500.000        3293.14     
  1576.44        500.000        3294.97     
  1573.93        500.000        3296.10     
  1571.43        500.000        3296.65     
  1568.92        500.000        3298.37     
  1566.42        500.000        3299.32     
  1563.91        500.000        3301.75     
  1561.40        500.000        3301.13     
  1558.90        500.000        3303.50     
  1556.39        500.000        3303.82     
  1553.88        500.000        3305.38     
  1551.38        500.000        3306.21     
  1548.87        500.000        3307.11     
  1546.37        500.000        3308.17     
  1543.86        500.000        3306.45     
  1541.35        500.000        3311.54     
  1538.85        500.000        3312.78     
  1536.34        500.000        3309.46     
  1533.83        500.000        3314.92     
  1531.33        500.000        3314.71     
  1528.82        500.000        3318.34     
  1526.32        500.000        3314.78     
  1523.81        500.000        3319.13     
  1521.30        500.000        3344.67     
  1518.80        500.000        3317.05     
  1516.29        500.000        3321.10     
  1513.78        500.000        3319.78     
  1511.28        500.000        3321.40     
  1508.77        500.000        3322.38     
  1506.27        500.000        3323.99     
  1503.76        500.000        3325.78     
  1501.25        500.000        3327.15     
  1498.75        500.000        3330.23     
  1496.24        500.000        3329.94     
  1493.73        500.000        3323.40     
  1491.23        500.000        3329.85     
  1488.72        500.000        3324.29     
  1486.22        500.000        3327.57     
  1483.71        500.000        3327.97     
  1481.20        500.000        3330.08     
  1478.70        500.000        3331.13     
  1476.19        500.000        3332.86     
  1473.68        500.000        3335.34     
  1471.18        500.000        3336.72     
  1468.67        500.000        3339.42     
  1466.17        500.000        3339.03     
  1463.66        500.000        3342.80     
  1461.15        500.000        3344.99     
  1458.65        500.000        3346.33     
  1456.14        500.000        3348.25     
  1453.63        500.000        3350.08     
  1451.13        500.000        3351.54     
  1448.62        500.000        3352.97     
  1446.12        500.000        3354.24     
  1443.61        500.000        3355.47     
  1441.10        500.000        3356.69     
  1438.60        500.000        3350.54     
  1436.09        500.000        3326.32     
  1433.58        500.000        3329.20     
  1431.08        500.000        3331.86     
  1428.57        500.000        3334.22     
  1426.07        500.000        3337.00     
  1423.56        500.000        3339.85     
  1421.05        500.000        3196.95     
  1418.55        500.000        3144.81     
  1416.04        500.000        3148.42     
  1413.53        500.000        3152.03     
  1411.03        500.000        3155.62     
  1408.52        500.000        3159.18     
  1406.02        500.000        3162.89     
  1403.51        500.000        3166.55     
  1401.00        500.000        3170.17     
  1398.50        500.000        3174.13     
  1395.99        500.000        3177.50     
  1393.48        500.000        3181.14     
  1390.98        500.000        3184.88     
  1388.47        500.000        3188.71     
  1385.96        500.000        3192.52     
  1383.46        500.000        3196.25     
  1380.95        500.000        3200.06     
  1378.45        500.000        3203.91     
  1375.94        500.000        3207.65     
  1373.43        500.000        3211.77     
  1370.93        500.000        3219.05     
  1368.42        500.000        3251.35     
  1365.91        500.000        3255.93     
  1363.41        500.000        3261.49     
  1360.90        500.000        3265.54     
  1358.40        500.000        3270.43     
  1355.89        500.000        3270.37     
  1353.38        500.000        3282.25     
  1350.88        500.000        3283.62     
  1348.37        500.000        3287.75     
  1345.86        500.000        3291.91     
  1343.36        500.000        3295.91     
  1340.85        500.000        3300.22     
  1338.35        500.000        3303.84     
  1335.84        500.000        3308.00     
  1333.33        500.000        3312.88     
  1330.83        500.000        3319.01     
  1328.32        500.000        3324.97     
  1325.81        500.000        3330.33     
  1323.31        500.000        3335.19     
  1320.80        500.000        3340.05     
  1318.30        500.000        3344.58     
  1315.79        500.000        3348.64     
  1313.28        500.000        3352.56     
  1310.78        500.000        3356.21     
  1308.27        500.000        3359.49     
  1305.76        500.000        3362.39     
  1303.26        500.000        3364.98     
  1300.75        500.000        3366.89     
  1298.25        500.000        3367.96     
  1295.74        500.000        3368.31     
  1293.23        500.000        3366.42     
  1290.73        500.000        3375.39     
  1288.22        500.000        3383.41     
  1285.71        500.000        3381.69     
  1283.21        500.000        3292.98     
  1280.70        500.000        3329.05     
  1278.20        500.000        3363.19     
  1275.69        500.000        3364.52     
  1273.18        500.000        3366.00     
  1270.68        500.000        3369.29     
  1268.17        500.000        3367.63     
  1265.66        500.000        3368.94     
  1263.16        500.000        3370.40     
  1260.65        500.000        3370.97     
  1258.15        500.000        3371.57     
  1255.64        500.000        3371.45     
  1253.13        500.000        3370.42     
  1250.63        500.000        3371.25     
  1248.12        500.000        3368.28     
  1245.61        500.000        2894.85     
  1243.11        500.000        2871.43     
  1240.60        500.000        2872.22     
  1238.10        500.000        2872.41     
  1235.59        500.000        2873.42     
  1233.08        500.000        2874.39     
  1230.58        500.000        2874.25     
  1228.07        500.000        2874.63     
  1225.56        500.000        2874.39     
  1223.06        500.000        2873.98     
  1220.55        500.000        2872.94     
  1218.05        500.000        2871.38     
  1215.54        500.000        2718.21     
  1213.03        500.000        2685.79     
  1210.53        500.000        2686.33     
  1208.02        500.000        2678.33     
  1205.51        500.000        2675.40     
  1203.01        500.000        2684.24     
  1200.50        500.000        2667.36     
  1197.99        500.000        2668.72     
  1195.49        500.000        2650.75     
  1192.98        500.000        2668.20     
  1190.48        500.000        2631.58     
  1187.97        500.000        2631.63     
  1185.46        500.000        2631.74     
  1182.96        500.000        2631.93     
  1180.45        500.000        2632.04     
  1177.94        500.000        2632.13     
  1175.44        500.000        2632.27     
  1172.93        500.000        2632.37     
  1170.43        500.000        2632.47     
  1167.92        500.000        2632.58     
  1165.41        500.000        2632.69     
  1162.91        500.000        2632.80     
  1160.40        500.000        2632.91     
  1157.89        500.000        2633.07     
  1155.39        500.000        2633.09     
  1152.88        500.000        2633.20     
  1150.38        500.000        2633.33     
  1147.87        500.000        2633.43     
  1145.36        500.000        2633.53     
  1142.86        500.000        2633.63     
  1140.35        500.000        2633.75     
  1137.84        500.000        2633.87     
  1135.34        500.000        2633.98     
  1132.83        500.000        2634.07     
  1130.33        500.000        2634.55     
  1127.82        500.000        2634.33     
  1125.31        500.000        2634.80     
  1122.81        500.000        2634.52     
  1120.30        500.000        2634.63     
  1117.79        500.000        2634.74     
  1115.29        500.000        2634.85     
  1112.78        500.000        2634.96     
  1110.28        500.000        2635.07     
  1107.77        500.000        2635.18     
  1105.26        500.000        2635.30     
  1102.76        500.000        2633.50     
  1100.25        500.000        2633.40     
  1097.74        500.000        2635.65     
  1095.24        500.000        2633.52     
  1092.73        500.000        2633.60     
  1090.23        500.000        2633.67     
  1087.72        500.000        2633.80     
  1085.21        500.000        2633.83     
  1082.71        500.000        2633.89     
  1080.20        500.000        2636.36     
  1077.69        500.000        2634.03     
  1075.19        500.000        2634.12     
  1072.68        500.000        2634.18     
  1070.18        500.000        2633.91     
  1067.67        500.000        2634.35     
  1065.16        500.000        2634.13     
  1062.66        500.000        2634.24     
  1060.15        500.000        2634.68     
  1057.64        500.000        2634.66     
  1055.14        500.000        2634.56     
  1052.63        500.000        2636.00     
  1050.13        500.000        2634.77     
  1047.62        500.000        2634.88     
  1045.11        500.000        2635.04     
  1042.61        500.000        2635.10     
  1040.10        500.000        2635.20     
  1037.59        500.000        2635.31     
  1035.09        500.000        2635.42     
  1032.58        500.000        2635.53     
  1030.08        500.000        2635.63     
  1027.57        500.000        2635.74     
  1025.06        500.000        2635.74     
  1022.56        500.000        2635.80     
  1020.05        500.000        2635.89     
  1017.54        500.000        2635.99     
  1015.04        500.000        2636.28     
  1012.53        500.000        2636.13     
  1010.03        500.000        2636.38     
  1007.52        500.000        2636.47     
  1005.01        500.000        2636.70     
  1002.51        500.000        2636.81     
  1000.00        500.000        2636.92     
