|6.6.6
Archiving\03_Data\fracLP/QFM_m3.75/GRV/GRV_6.tab                          
           1
T(K)    
  0.000000000000000E+000
  0.000000000000000E+000
           0
           3
T(K)           P(bar)         rho,kg/m3     
  2000.00        500.000        3552.33     
  1997.49        500.000        3552.70     
  1994.99        500.000        3553.07     
  1992.48        500.000        3553.44     
  1989.97        500.000        3553.81     
  1987.47        500.000        3554.18     
  1984.96        500.000        3554.55     
  1982.46        500.000        3554.92     
  1979.95        500.000        3555.29     
  1977.44        500.000        3555.66     
  1974.94        500.000        3556.03     
  1972.43        500.000        3556.40     
  1969.92        500.000        3556.77     
  1967.42        500.000        3557.14     
  1964.91        500.000        3557.50     
  1962.41        500.000        3557.87     
  1959.90        500.000        3558.24     
  1957.39        500.000        3558.61     
  1954.89        500.000        3558.98     
  1952.38        500.000        3559.35     
  1949.87        500.000        3559.72     
  1947.37        500.000        3560.08     
  1944.86        500.000        3560.45     
  1942.36        500.000        3560.82     
  1939.85        500.000        3561.19     
  1937.34        500.000        3561.56     
  1934.84        500.000        3561.92     
  1932.33        500.000        3562.29     
  1929.82        500.000        3562.66     
  1927.32        500.000        3563.03     
  1924.81        500.000        3563.39     
  1922.31        500.000        3563.76     
  1919.80        500.000        3564.13     
  1917.29        500.000        3564.49     
  1914.79        500.000        3564.86     
  1912.28        500.000        3565.23     
  1909.77        500.000        3565.59     
  1907.27        500.000        3565.96     
  1904.76        500.000        3566.32     
  1902.26        500.000        3566.69     
  1899.75        500.000        3567.06     
  1897.24        500.000        3567.42     
  1894.74        500.000        3567.79     
  1892.23        500.000        3568.15     
  1889.72        500.000        3568.52     
  1887.22        500.000        3568.88     
  1884.71        500.000        3569.25     
  1882.21        500.000        3569.61     
  1879.70        500.000        3569.98     
  1877.19        500.000        3570.34     
  1874.69        500.000        3570.71     
  1872.18        500.000        3571.07     
  1869.67        500.000        3571.44     
  1867.17        500.000        3571.80     
  1864.66        500.000        3572.16     
  1862.16        500.000        3572.53     
  1859.65        500.000        3572.89     
  1857.14        500.000        3573.25     
  1854.64        500.000        3573.62     
  1852.13        500.000        3573.98     
  1849.62        500.000        3574.35     
  1847.12        500.000        3574.71     
  1844.61        500.000        3575.07     
  1842.11        500.000        3575.43     
  1839.60        500.000        3575.80     
  1837.09        500.000        3576.16     
  1834.59        500.000        3576.52     
  1832.08        500.000        3576.88     
  1829.57        500.000        3577.25     
  1827.07        500.000        3577.61     
  1824.56        500.000        3577.97     
  1822.06        500.000        3578.33     
  1819.55        500.000        3578.70     
  1817.04        500.000        3579.06     
  1814.54        500.000        3579.42     
  1812.03        500.000        3579.78     
  1809.52        500.000        3580.14     
  1807.02        500.000        3580.50     
  1804.51        500.000        3580.86     
  1802.01        500.000        3581.22     
  1799.50        500.000        3588.40     
  1796.99        500.000        3595.67     
  1794.49        500.000        3595.94     
  1791.98        500.000        3596.18     
  1789.47        500.000        3596.45     
  1786.97        500.000        3596.72     
  1784.46        500.000        3596.98     
  1781.95        500.000        3597.28     
  1779.45        500.000        3597.56     
  1776.94        500.000        3597.73     
  1774.44        500.000        3598.05     
  1771.93        500.000        3598.32     
  1769.42        500.000        3598.55     
  1766.92        500.000        3598.87     
  1764.41        500.000        3599.09     
  1761.90        500.000        3488.10     
  1759.40        500.000        3293.46     
  1756.89        500.000        3264.70     
  1754.39        500.000        3282.85     
  1751.88        500.000        3284.73     
  1749.37        500.000        3286.64     
  1746.87        500.000        3287.72     
  1744.36        500.000        3289.26     
  1741.85        500.000        3290.91     
  1739.35        500.000        3292.88     
  1736.84        500.000        3294.33     
  1734.34        500.000        3296.54     
  1731.83        500.000        3297.97     
  1729.32        500.000        3299.45     
  1726.82        500.000        3301.49     
  1724.31        500.000        3303.47     
  1721.80        500.000        3305.09     
  1719.30        500.000        3306.66     
  1716.79        500.000        3308.33     
  1714.29        500.000        3309.79     
  1711.78        500.000        3311.84     
  1709.27        500.000        3313.15     
  1706.77        500.000        3315.04     
  1704.26        500.000        3317.81     
  1701.75        500.000        3317.72     
  1699.25        500.000        3319.82     
  1696.74        500.000        3320.90     
  1694.24        500.000        3322.46     
  1691.73        500.000        3324.35     
  1689.22        500.000        3325.98     
  1686.72        500.000        3326.99     
  1684.21        500.000        3329.16     
  1681.70        500.000        3329.79     
  1679.20        500.000        3332.09     
  1676.69        500.000        3333.57     
  1674.19        500.000        3335.53     
  1671.68        500.000        3336.42     
  1669.17        500.000        3337.62     
  1666.67        500.000        3340.19     
  1664.16        500.000        3341.24     
  1661.65        500.000        3343.07     
  1659.15        500.000        3343.59     
  1656.64        500.000        3345.31     
  1654.14        500.000        3346.93     
  1651.63        500.000        3347.82     
  1649.12        500.000        3349.62     
  1646.62        500.000        3350.01     
  1644.11        500.000        3351.38     
  1641.60        500.000        3353.51     
  1639.10        500.000        3356.65     
  1636.59        500.000        3347.73     
  1634.09        500.000        3357.56     
  1631.58        500.000        3358.60     
  1629.07        500.000        3359.93     
  1626.57        500.000        3323.38     
  1624.06        500.000        3234.60     
  1621.55        500.000        3234.63     
  1619.05        500.000        3235.75     
  1616.54        500.000        3237.38     
  1614.04        500.000        3237.55     
  1611.53        500.000        3238.80     
  1609.02        500.000        3239.76     
  1606.52        500.000        3241.15     
  1604.01        500.000        3242.30     
  1601.50        500.000        3242.82     
  1599.00        500.000        3244.24     
  1596.49        500.000        3245.69     
  1593.98        500.000        3246.77     
  1591.48        500.000        3247.89     
  1588.97        500.000        3248.46     
  1586.47        500.000        3249.43     
  1583.96        500.000        3250.72     
  1581.45        500.000        3251.84     
  1578.95        500.000        3252.63     
  1576.44        500.000        3253.72     
  1573.93        500.000        3255.49     
  1571.43        500.000        3256.31     
  1568.92        500.000        3257.92     
  1566.42        500.000        3259.24     
  1563.91        500.000        3261.32     
  1561.40        500.000        3261.32     
  1558.90        500.000        3262.76     
  1556.39        500.000        3263.17     
  1553.88        500.000        3264.60     
  1551.38        500.000        3266.45     
  1548.87        500.000        3267.60     
  1546.37        500.000        3268.48     
  1543.86        500.000        3270.03     
  1541.35        500.000        3271.66     
  1538.85        500.000        3271.66     
  1536.34        500.000        3258.85     
  1533.83        500.000        3263.07     
  1531.33        500.000        3270.98     
  1528.82        500.000        3272.17     
  1526.32        500.000        3272.65     
  1523.81        500.000        3273.39     
  1521.30        500.000        3262.88     
  1518.80        500.000        3261.28     
  1516.29        500.000        3263.49     
  1513.78        500.000        3265.67     
  1511.28        500.000        3268.14     
  1508.77        500.000        3270.44     
  1506.27        500.000        3272.56     
  1503.76        500.000        3274.84     
  1501.25        500.000        3277.12     
  1498.75        500.000        3279.03     
  1496.24        500.000        3281.80     
  1493.73        500.000        3283.88     
  1491.23        500.000        3286.13     
  1488.72        500.000        3288.51     
  1486.22        500.000        3290.84     
  1483.71        500.000        3293.05     
  1481.20        500.000        3295.36     
  1478.70        500.000        3297.87     
  1476.19        500.000        3299.93     
  1473.68        500.000        3302.39     
  1471.18        500.000        3304.54     
  1468.67        500.000        3306.94     
  1466.17        500.000        3309.38     
  1463.66        500.000        3311.74     
  1461.15        500.000        3313.96     
  1458.65        500.000        3316.57     
  1456.14        500.000        3318.87     
  1453.63        500.000        3321.24     
  1451.13        500.000        3323.60     
  1448.62        500.000        3326.23     
  1446.12        500.000        3328.44     
  1443.61        500.000        3330.98     
  1441.10        500.000        3333.19     
  1438.60        500.000        3335.72     
  1436.09        500.000        3338.25     
  1433.58        500.000        3340.91     
  1431.08        500.000        3343.49     
  1428.57        500.000        3345.72     
  1426.07        500.000        3348.26     
  1423.56        500.000        3351.04     
  1421.05        500.000        3353.63     
  1418.55        500.000        3355.99     
  1416.04        500.000        3358.60     
  1413.53        500.000        3361.43     
  1411.03        500.000        3364.07     
  1408.52        500.000        3366.52     
  1406.02        500.000        3369.25     
  1403.51        500.000        3371.96     
  1401.00        500.000        3374.43     
  1398.50        500.000        3377.06     
  1395.99        500.000        3272.74     
  1393.48        500.000        3170.91     
  1390.98        500.000        3174.23     
  1388.47        500.000        3177.59     
  1385.96        500.000        3180.65     
  1383.46        500.000        3184.03     
  1380.95        500.000        3187.45     
  1378.45        500.000        3190.84     
  1375.94        500.000        3193.96     
  1373.43        500.000        3197.48     
  1370.93        500.000        3200.97     
  1368.42        500.000        3193.04     
  1365.91        500.000        3199.64     
  1363.41        500.000        3208.85     
  1360.90        500.000        3217.33     
  1358.40        500.000        3225.88     
  1355.89        500.000        3232.75     
  1353.38        500.000        3240.36     
  1350.88        500.000        3248.18     
  1348.37        500.000        3257.29     
  1345.86        500.000        3264.17     
  1343.36        500.000        3271.38     
  1340.85        500.000        3329.88     
  1338.35        500.000        3343.05     
  1335.84        500.000        3349.65     
  1333.33        500.000        3355.16     
  1330.83        500.000        3360.08     
  1328.32        500.000        3364.45     
  1325.81        500.000        2665.06     
  1323.31        500.000        2710.87     
  1320.80        500.000        3212.83     
  1318.30        500.000        3430.47     
  1315.79        500.000        3439.38     
  1313.28        500.000        3406.96     
  1310.78        500.000        3407.20     
  1308.27        500.000        3407.34     
  1305.76        500.000        3407.22     
  1303.26        500.000        3406.16     
  1300.75        500.000        3361.33     
  1298.25        500.000        3620.96     
  1295.74        500.000        3392.54     
  1293.23        500.000        3889.89     
  1290.73        500.000        3460.65     
  1288.22        500.000        3325.23     
  1285.71        500.000        3336.14     
  1283.21        500.000        3341.78     
  1280.70        500.000        3354.31     
  1278.20        500.000        3361.52     
  1275.69        500.000        3364.86     
  1273.18        500.000        3346.28     
  1270.68        500.000        3351.83     
  1268.17        500.000        3355.33     
  1265.66        500.000        3354.28     
  1263.16        500.000        3347.49     
  1260.65        500.000        3349.05     
  1258.15        500.000        3350.67     
  1255.64        500.000        3352.30     
  1253.13        500.000        3354.20     
  1250.63        500.000        3355.69     
  1248.12        500.000        3357.04     
  1245.61        500.000        3358.42     
  1243.11        500.000        3146.22     
  1240.60        500.000        2861.07     
  1238.10        500.000        2861.90     
  1235.59        500.000        2862.63     
  1233.08        500.000        2863.24     
  1230.58        500.000        2863.33     
  1228.07        500.000        2864.56     
  1225.56        500.000        2864.36     
  1223.06        500.000        2864.24     
  1220.55        500.000        2864.68     
  1218.05        500.000        2687.07     
  1215.54        500.000        2689.18     
  1213.03        500.000        2688.84     
  1210.53        500.000        2687.39     
  1208.02        500.000        2660.17     
  1205.51        500.000        3213.63     
  1203.01        500.000        2714.27     
  1200.50        500.000        2681.21     
  1197.99        500.000        2664.99     
  1195.49        500.000        2667.46     
  1192.98        500.000        2655.48     
  1190.48        500.000        2633.88     
  1187.97        500.000        2633.96     
  1185.46        500.000        2634.01     
  1182.96        500.000        2634.12     
  1180.45        500.000        2634.30     
  1177.94        500.000        2634.33     
  1175.44        500.000        2634.45     
  1172.93        500.000        2634.64     
  1170.43        500.000        2634.68     
  1167.92        500.000        2634.76     
  1165.41        500.000        2633.45     
  1162.91        500.000        2635.01     
  1160.40        500.000        2635.13     
  1157.89        500.000        2635.29     
  1155.39        500.000        2635.37     
  1152.88        500.000        2635.46     
  1150.38        500.000        2635.63     
  1147.87        500.000        2635.62     
  1145.36        500.000        2635.79     
  1142.86        500.000        2635.90     
  1140.35        500.000        2636.01     
  1137.84        500.000        2636.12     
  1135.34        500.000        2636.25     
  1132.83        500.000        2636.31     
  1130.33        500.000        2636.51     
  1127.82        500.000        2636.62     
  1125.31        500.000        2636.63     
  1122.81        500.000        2636.80     
  1120.30        500.000        2636.93     
  1117.79        500.000        2636.98     
  1115.29        500.000        2637.12     
  1112.78        500.000        2637.23     
  1110.28        500.000        2637.34     
  1107.77        500.000        2637.45     
  1105.26        500.000        2637.56     
  1102.76        500.000        2637.67     
  1100.25        500.000        2637.77     
  1097.74        500.000        2634.83     
  1095.24        500.000        2638.02     
  1092.73        500.000        2638.13     
  1090.23        500.000        2635.91     
  1087.72        500.000        2635.23     
  1085.21        500.000        2638.46     
  1082.71        500.000        2638.58     
  1080.20        500.000        2638.64     
  1077.69        500.000        2638.80     
  1075.19        500.000        2635.47     
  1072.68        500.000        2635.55     
  1070.18        500.000        2639.12     
  1067.67        500.000        2637.63     
  1065.16        500.000        2638.35     
  1062.66        500.000        2637.10     
  1060.15        500.000        2636.96     
  1057.64        500.000        2636.95     
  1055.14        500.000        2636.94     
  1052.63        500.000        2636.96     
  1050.13        500.000        2637.00     
  1047.62        500.000        2637.06     
  1045.11        500.000        2637.13     
  1042.61        500.000        2637.15     
  1040.10        500.000        2637.18     
  1037.59        500.000        2637.24     
  1035.09        500.000        2637.29     
  1032.58        500.000        2637.35     
  1030.08        500.000        2637.42     
  1027.57        500.000        2637.46     
  1025.06        500.000        2637.55     
  1022.56        500.000        2637.62     
  1020.05        500.000        2637.69     
  1017.54        500.000        2637.76     
  1015.04        500.000        2637.83     
  1012.53        500.000        2637.50     
  1010.03        500.000        2637.98     
  1007.52        500.000        2638.05     
  1005.01        500.000        2638.13     
  1002.51        500.000        2638.20     
  1000.00        500.000        2638.28     
