|6.6.6
Archiving\03_Data\Deq/QFM_m2.5/T13/T13_6.tab                          
           1
T(K)    
  0.000000000000000E+000
  0.000000000000000E+000
           0
           3
T(K)           P(bar)         rho,kg/m3     
  2000.00        2500.00        8112.42     
  1996.79        2500.00        8114.24     
  1993.59        2500.00        8116.06     
  1990.38        2500.00        8117.88     
  1987.18        2500.00        8119.70     
  1983.97        2500.00        8121.52     
  1980.77        2500.00        8123.33     
  1977.56        2500.00        8125.14     
  1974.36        2500.00        8126.96     
  1971.15        2500.00        8128.77     
  1967.95        2500.00        8130.57     
  1964.74        2500.00        8132.38     
  1961.54        2500.00        8134.19     
  1958.33        2500.00        8135.99     
  1955.13        2500.00        3631.90     
  1951.92        2500.00        3198.04     
  1948.72        2500.00        3180.66     
  1945.51        2500.00        3179.93     
  1942.31        2500.00        3179.66     
  1939.10        2500.00        3179.63     
  1935.90        2500.00        3179.74     
  1932.69        2500.00        3179.94     
  1929.49        2500.00        3180.20     
  1926.28        2500.00        3180.50     
  1923.08        2500.00        3180.83     
  1919.87        2500.00        3182.85     
  1916.67        2500.00        3184.61     
  1913.46        2500.00        3186.16     
  1910.26        2500.00        3187.55     
  1907.05        2500.00        3189.68     
  1903.85        2500.00        3191.59     
  1900.64        2500.00        3194.00     
  1897.44        2500.00        3195.82     
  1894.23        2500.00        3199.48     
  1891.03        2500.00        3202.83     
  1887.82        2500.00        3205.91     
  1884.62        2500.00        3208.76     
  1881.41        2500.00        3211.40     
  1878.21        2500.00        3213.87     
  1875.00        2500.00        3216.18     
  1871.79        2500.00        3218.35     
  1868.59        2500.00        3221.33     
  1865.38        2500.00        3224.15     
  1862.18        2500.00        3226.82     
  1858.97        2500.00        3229.36     
  1855.77        2500.00        3231.77     
  1852.56        2500.00        3234.07     
  1849.36        2500.00        3236.26     
  1846.15        2500.00        3238.36     
  1842.95        2500.00        3241.03     
  1839.74        2500.00        3243.60     
  1836.54        2500.00        3246.06     
  1833.33        2500.00        3248.43     
  1830.13        2500.00        3250.72     
  1826.92        2500.00        3252.92     
  1823.72        2500.00        3255.05     
  1820.51        2500.00        3257.10     
  1817.31        2500.00        3259.53     
  1814.10        2500.00        3261.88     
  1810.90        2500.00        3264.16     
  1807.69        2500.00        3266.37     
  1804.49        2500.00        3268.52     
  1801.28        2500.00        3270.60     
  1798.08        2500.00        3272.63     
  1794.87        2500.00        3274.61     
  1791.67        2500.00        3276.81     
  1788.46        2500.00        3278.95     
  1785.26        2500.00        3281.04     
  1782.05        2500.00        3283.07     
  1778.85        2500.00        3285.06     
  1775.64        2500.00        3287.01     
  1772.44        2500.00        3288.91     
  1769.23        2500.00        3290.77     
  1766.03        2500.00        3292.73     
  1762.82        2500.00        3294.65     
  1759.62        2500.00        3296.54     
  1756.41        2500.00        3298.38     
  1753.21        2500.00        3300.20     
  1750.00        2500.00        3301.97     
  1746.79        2500.00        3303.72     
  1743.59        2500.00        3305.43     
  1740.38        2500.00        3307.15     
  1737.18        2500.00        3308.84     
  1733.97        2500.00        3310.51     
  1730.77        2500.00        3312.15     
  1727.56        2500.00        3313.76     
  1724.36        2500.00        3315.35     
  1721.15        2500.00        3316.91     
  1717.95        2500.00        3318.45     
  1714.74        2500.00        3319.95     
  1711.54        2500.00        3321.43     
  1708.33        2500.00        3322.89     
  1705.13        2500.00        3324.33     
  1701.92        2500.00        3325.76     
  1698.72        2500.00        3327.16     
  1695.51        2500.00        3328.55     
  1692.31        2500.00        3329.92     
  1689.10        2500.00        3331.21     
  1685.90        2500.00        3332.48     
  1682.69        2500.00        3333.74     
  1679.49        2500.00        3334.99     
  1676.28        2500.00        3336.23     
  1673.08        2500.00        3337.45     
  1669.87        2500.00        3338.66     
  1666.67        2500.00        3339.86     
  1663.46        2500.00        3340.99     
  1660.26        2500.00        3342.11     
  1657.05        2500.00        3343.22     
  1653.85        2500.00        3344.32     
  1650.64        2500.00        3345.38     
  1647.44        2500.00        3346.43     
  1644.23        2500.00        3346.34     
  1641.03        2500.00        3345.72     
  1637.82        2500.00        3345.37     
  1634.62        2500.00        3345.05     
  1631.41        2500.00        3344.74     
  1628.21        2500.00        3344.46     
  1625.00        2500.00        3344.19     
  1621.79        2500.00        3343.95     
  1618.59        2500.00        3343.72     
  1615.38        2500.00        3343.51     
  1612.18        2500.00        3343.55     
  1608.97        2500.00        3343.59     
  1605.77        2500.00        3343.64     
  1602.56        2500.00        3343.70     
  1599.36        2500.00        3343.77     
  1596.15        2500.00        3343.84     
  1592.95        2500.00        3343.92     
  1589.74        2500.00        3344.01     
  1586.54        2500.00        3344.20     
  1583.33        2500.00        3344.40     
  1580.13        2500.00        3344.60     
  1576.92        2500.00        3344.81     
  1573.72        2500.00        3345.02     
  1570.51        2500.00        3345.23     
  1567.31        2500.00        3345.44     
  1564.10        2500.00        3345.66     
  1560.90        2500.00        3345.92     
  1557.69        2500.00        3346.18     
  1554.49        2500.00        3346.44     
  1551.28        2500.00        3346.71     
  1548.08        2500.00        3346.98     
  1544.87        2500.00        3347.25     
  1541.67        2500.00        3347.52     
  1538.46        2500.00        3347.80     
  1535.26        2500.00        3348.08     
  1532.05        2500.00        3348.36     
  1528.85        2500.00        3348.65     
  1525.64        2500.00        3348.94     
  1522.44        2500.00        3349.23     
  1519.23        2500.00        3349.52     
  1516.03        2500.00        3349.81     
  1512.82        2500.00        3350.11     
  1509.62        2500.00        3350.40     
  1506.41        2500.00        3350.70     
  1503.21        2500.00        3351.00     
  1500.00        2500.00        3351.29     
  1496.79        2500.00        3351.60     
  1493.59        2500.00        3351.92     
  1490.38        2500.00        3352.26     
  1487.18        2500.00        3352.61     
  1483.97        2500.00        3352.99     
  1480.77        2500.00        3353.37     
  1477.56        2500.00        3353.75     
  1474.36        2500.00        3354.13     
  1471.15        2500.00        3354.54     
  1467.95        2500.00        3354.90     
  1464.74        2500.00        3355.35     
  1461.54        2500.00        3355.66     
  1458.33        2500.00        3356.11     
  1455.13        2500.00        3356.55     
  1451.92        2500.00        3357.00     
  1448.72        2500.00        3357.45     
  1445.51        2500.00        3357.89     
  1442.31        2500.00        3358.34     
  1439.10        2500.00        3358.78     
  1435.90        2500.00        3358.81     
  1432.69        2500.00        3358.71     
  1429.49        2500.00        3358.23     
  1426.28        2500.00        3358.68     
  1423.08        2500.00        3357.47     
  1419.87        2500.00        3357.91     
  1416.67        2500.00        3358.35     
  1413.46        2500.00        3358.79     
  1410.26        2500.00        3356.47     
  1407.05        2500.00        3356.91     
  1403.85        2500.00        3357.34     
  1400.64        2500.00        3357.78     
  1397.44        2500.00        3358.22     
  1394.23        2500.00        3358.66     
  1391.03        2500.00        3359.09     
  1387.82        2500.00        3359.53     
  1384.62        2500.00        3355.68     
  1381.41        2500.00        3356.11     
  1378.21        2500.00        3356.54     
  1375.00        2500.00        3356.98     
  1371.79        2500.00        3357.41     
  1368.59        2500.00        3357.84     
  1365.38        2500.00        3358.28     
  1362.18        2500.00        3358.71     
  1358.97        2500.00        3355.73     
  1355.77        2500.00        3356.16     
  1352.56        2500.00        3356.59     
  1349.36        2500.00        3357.02     
  1346.15        2500.00        3357.45     
  1342.95        2500.00        3357.88     
  1339.74        2500.00        3358.31     
  1336.54        2500.00        3358.74     
  1333.33        2500.00        3356.29     
  1330.13        2500.00        3356.72     
  1326.92        2500.00        3357.14     
  1323.72        2500.00        3357.57     
  1320.51        2500.00        3356.73     
  1317.31        2500.00        3354.82     
  1314.10        2500.00        3355.17     
  1310.90        2500.00        3355.59     
  1307.69        2500.00        3355.87     
  1304.49        2500.00        3356.30     
  1301.28        2500.00        3356.72     
  1298.08        2500.00        3357.15     
  1294.87        2500.00        3357.57     
  1291.67        2500.00        3357.99     
  1288.46        2500.00        3358.41     
  1285.26        2500.00        3358.84     
  1282.05        2500.00        3358.72     
  1278.85        2500.00        3359.14     
  1275.64        2500.00        3359.56     
  1272.44        2500.00        3359.98     
  1269.23        2500.00        3360.40     
  1266.03        2500.00        3360.82     
  1262.82        2500.00        3361.24     
  1259.62        2500.00        3361.66     
  1256.41        2500.00        3361.61     
  1253.21        2500.00        3362.03     
  1250.00        2500.00        3362.45     
  1246.79        2500.00        3362.87     
  1243.59        2500.00        3363.29     
  1240.38        2500.00        3363.71     
  1237.18        2500.00        3364.13     
  1233.97        2500.00        3364.54     
  1230.77        2500.00        3364.56     
  1227.56        2500.00        3364.98     
  1224.36        2500.00        3365.39     
  1221.15        2500.00        3365.81     
  1217.95        2500.00        3366.23     
  1214.74        2500.00        3366.64     
  1211.54        2500.00        3367.06     
  1208.33        2500.00        3367.47     
  1205.13        2500.00        3367.56     
  1201.92        2500.00        3367.97     
  1198.72        2500.00        3368.39     
  1195.51        2500.00        3368.80     
  1192.31        2500.00        3369.22     
  1189.10        2500.00        3369.63     
  1185.90        2500.00        3370.04     
  1182.69        2500.00        3370.46     
  1179.49        2500.00        3370.60     
  1176.28        2500.00        3371.01     
  1173.08        2500.00        3371.43     
  1169.87        2500.00        3371.84     
  1166.67        2500.00        3372.25     
  1163.46        2500.00        3372.66     
  1160.26        2500.00        3373.08     
  1157.05        2500.00        3373.49     
  1153.85        2500.00        3373.70     
  1150.64        2500.00        3374.11     
  1147.44        2500.00        3374.52     
  1144.23        2500.00        3374.93     
  1141.03        2500.00        3375.34     
  1137.82        2500.00        3375.75     
  1134.62        2500.00        3376.16     
  1131.41        2500.00        3376.57     
  1128.21        2500.00        3376.85     
  1125.00        2500.00        3377.26     
  1121.79        2500.00        3377.67     
  1118.59        2500.00        3378.08     
  1115.38        2500.00        3378.49     
  1112.18        2500.00        3378.89     
  1108.97        2500.00        3379.30     
  1105.77        2500.00        3379.71     
  1102.56        2500.00        3380.06     
  1099.36        2500.00        3380.47     
  1096.15        2500.00        3380.88     
  1092.95        2500.00        3381.28     
  1089.74        2500.00        3381.69     
  1086.54        2500.00        3382.09     
  1083.33        2500.00        3382.50     
  1080.13        2500.00        3382.91     
  1076.92        2500.00        3383.34     
  1073.72        2500.00        3383.74     
  1070.51        2500.00        3384.15     
  1067.31        2500.00        3384.55     
  1064.10        2500.00        3385.00     
  1060.90        2500.00        3385.43     
  1057.69        2500.00        3385.84     
  1054.49        2500.00        3386.24     
  1051.28        2500.00        3386.67     
  1048.08        2500.00        3387.07     
  1044.87        2500.00        3387.47     
  1041.67        2500.00        3387.87     
  1038.46        2500.00        3388.28     
  1035.26        2500.00        3388.68     
  1032.05        2500.00        3389.08     
  1028.85        2500.00        3389.48     
  1025.64        2500.00        3390.00     
  1022.44        2500.00        3390.41     
  1019.23        2500.00        3390.81     
  1016.03        2500.00        3391.21     
  1012.82        2500.00        3391.61     
  1009.62        2500.00        3392.01     
  1006.41        2500.00        3392.41     
  1003.21        2500.00        3392.81     
  1000.00        2500.00        3393.42     
