|6.6.6
Archiving\03_Data\Deqfrac/QFM_m3/WD94/WD94_6.tab                          
           1
T(K)    
  0.000000000000000E+000
  0.000000000000000E+000
           0
           3
T(K)           P(bar)         rho,kg/m3     
  1634.62        2500.00        3270.14     
  1633.03        2500.00        3251.19     
  1631.44        2500.00        3252.93     
  1629.85        2500.00        3253.30     
  1628.26        2500.00        3253.79     
  1626.67        2500.00        3254.30     
  1625.08        2500.00        3256.04     
  1623.49        2500.00        3255.58     
  1621.90        2500.00        3256.70     
  1620.31        2500.00        3256.94     
  1618.71        2500.00        3257.62     
  1617.12        2500.00        3261.48     
  1615.53        2500.00        3259.18     
  1613.94        2500.00        3260.25     
  1612.35        2500.00        3341.56     
  1610.76        2500.00        3253.27     
  1609.17        2500.00        3261.93     
  1607.58        2500.00        3262.48     
  1605.99        2500.00        3262.93     
  1604.40        2500.00        3264.50     
  1602.81        2500.00        3264.68     
  1601.22        2500.00        3264.83     
  1599.63        2500.00        3265.68     
  1598.04        2500.00        3266.26     
  1596.45        2500.00        3266.97     
  1594.86        2500.00        3267.61     
  1593.27        2500.00        3268.32     
  1591.68        2500.00        3268.86     
  1590.09        2500.00        3269.23     
  1588.49        2500.00        3269.42     
  1586.90        2500.00        3271.04     
  1585.31        2500.00        3271.40     
  1583.72        2500.00        3272.13     
  1582.13        2500.00        3272.69     
  1580.54        2500.00        3273.39     
  1578.95        2500.00        3274.24     
  1577.36        2500.00        3274.00     
  1575.77        2500.00        3275.11     
  1574.18        2500.00        3275.70     
  1572.59        2500.00        3276.47     
  1571.00        2500.00        3276.46     
  1569.41        2500.00        3277.91     
  1567.82        2500.00        3278.20     
  1566.23        2500.00        3278.72     
  1564.64        2500.00        3279.63     
  1563.05        2500.00        3280.19     
  1561.46        2500.00        3281.45     
  1559.87        2500.00        3281.53     
  1558.27        2500.00        3282.47     
  1556.68        2500.00        3282.21     
  1555.09        2500.00        3283.27     
  1553.50        2500.00        3283.77     
  1551.91        2500.00        3284.09     
  1550.32        2500.00        3284.70     
  1548.73        2500.00        3285.52     
  1547.14        2500.00        3284.19     
  1545.55        2500.00        3287.40     
  1543.96        2500.00        3286.86     
  1542.37        2500.00        3287.23     
  1540.78        2500.00        3288.31     
  1539.19        2500.00        3297.48     
  1537.60        2500.00        3288.42     
  1536.01        2500.00        3311.97     
  1534.42        2500.00        3282.17     
  1532.83        2500.00        3287.01     
  1531.24        2500.00        3291.10     
  1529.65        2500.00        3292.39     
  1528.05        2500.00        3292.77     
  1526.46        2500.00        3294.01     
  1524.87        2500.00        3293.44     
  1523.28        2500.00        3294.52     
  1521.69        2500.00        3289.07     
  1520.10        2500.00        3301.19     
  1518.51        2500.00        3295.83     
  1516.92        2500.00        3275.34     
  1515.33        2500.00        3275.66     
  1513.74        2500.00        3275.06     
  1512.15        2500.00        3276.78     
  1510.56        2500.00        3279.24     
  1508.97        2500.00        3278.81     
  1507.38        2500.00        3278.74     
  1505.79        2500.00        3280.54     
  1504.20        2500.00        3280.85     
  1502.61        2500.00        3282.33     
  1501.02        2500.00        3283.27     
  1499.43        2500.00        3284.12     
  1497.83        2500.00        3285.06     
  1496.24        2500.00        3285.99     
  1494.65        2500.00        3286.60     
  1493.06        2500.00        3282.58     
  1491.47        2500.00        3270.12     
  1489.88        2500.00        3271.64     
  1488.29        2500.00        3272.55     
  1486.70        2500.00        3274.32     
  1485.11        2500.00        3275.38     
  1483.52        2500.00        3276.88     
  1481.93        2500.00        3278.77     
  1480.34        2500.00        3279.60     
  1478.75        2500.00        3280.81     
  1477.16        2500.00        3282.65     
  1475.57        2500.00        3284.14     
  1473.98        2500.00        3285.17     
  1472.39        2500.00        3286.83     
  1470.80        2500.00        3288.24     
  1469.21        2500.00        3289.41     
  1467.61        2500.00        3290.89     
  1466.02        2500.00        3323.07     
  1464.43        2500.00        3293.43     
  1462.84        2500.00        3326.30     
  1461.25        2500.00        3296.60     
  1459.66        2500.00        3298.36     
  1458.07        2500.00        3299.53     
  1456.48        2500.00        3301.38     
  1454.89        2500.00        3302.63     
  1453.30        2500.00        3304.15     
  1451.71        2500.00        3287.63     
  1450.12        2500.00        3135.50     
  1448.53        2500.00        3128.01     
  1446.94        2500.00        3130.30     
  1445.35        2500.00        3132.94     
  1443.76        2500.00        3135.51     
  1442.17        2500.00        3138.00     
  1440.58        2500.00        3140.22     
  1438.99        2500.00        3142.69     
  1437.39        2500.00        3145.13     
  1435.80        2500.00        3150.25     
  1434.21        2500.00        3150.78     
  1432.62        2500.00        3152.46     
  1431.03        2500.00        3155.04     
  1429.44        2500.00        3157.50     
  1427.85        2500.00        3160.25     
  1426.26        2500.00        3162.54     
  1424.67        2500.00        3165.16     
  1423.08        2500.00        3167.57     
  1421.49        2500.00        3170.32     
  1419.90        2500.00        3171.79     
  1418.31        2500.00        3175.81     
  1416.72        2500.00        3177.71     
  1415.13        2500.00        3180.16     
  1413.54        2500.00        3182.88     
  1411.95        2500.00        3185.45     
  1410.36        2500.00        3188.10     
  1408.77        2500.00        3190.52     
  1407.17        2500.00        3193.10     
  1405.58        2500.00        3195.76     
  1403.99        2500.00        3198.33     
  1402.40        2500.00        3200.90     
  1400.81        2500.00        3203.34     
  1399.22        2500.00        3206.14     
  1397.63        2500.00        3208.59     
  1396.04        2500.00        3205.16     
  1394.45        2500.00        3216.28     
  1392.86        2500.00        3216.86     
  1391.27        2500.00        3218.85     
  1389.68        2500.00        3214.32     
  1388.09        2500.00        3223.93     
  1386.50        2500.00        3226.15     
  1384.91        2500.00        3228.45     
  1383.32        2500.00        3230.93     
  1381.73        2500.00        3232.76     
  1380.14        2500.00        3235.03     
  1378.55        2500.00        3237.45     
  1376.95        2500.00        3239.75     
  1375.36        2500.00        3241.67     
  1373.77        2500.00        3244.04     
  1372.18        2500.00        3246.52     
  1370.59        2500.00        3248.49     
  1369.00        2500.00        3251.01     
  1367.41        2500.00        3252.66     
  1365.82        2500.00        3255.02     
  1364.23        2500.00        3257.44     
  1362.64        2500.00        3258.94     
  1361.05        2500.00        3260.80     
  1359.46        2500.00        3263.36     
  1357.87        2500.00        3266.26     
  1356.28        2500.00        3267.56     
  1354.69        2500.00        3269.15     
  1353.10        2500.00        3270.98     
  1351.51        2500.00        3272.87     
  1349.92        2500.00        3272.97     
  1348.33        2500.00        3278.92     
  1346.73        2500.00        3278.74     
  1345.14        2500.00        3280.55     
  1343.55        2500.00        3281.89     
  1341.96        2500.00        3283.99     
  1340.37        2500.00        3286.32     
  1338.78        2500.00        3287.32     
  1337.19        2500.00        3288.99     
  1335.60        2500.00        3291.00     
  1334.01        2500.00        3292.53     
  1332.42        2500.00        3293.54     
  1330.83        2500.00        3295.40     
  1329.24        2500.00        3295.53     
  1327.65        2500.00        3299.30     
  1326.06        2500.00        3299.78     
  1324.47        2500.00        3300.03     
  1322.88        2500.00        3301.27     
  1321.29        2500.00        3302.29     
  1319.70        2500.00        3303.64     
  1318.11        2500.00        3304.65     
  1316.51        2500.00        3305.36     
  1314.92        2500.00        3306.31     
  1313.33        2500.00        3305.58     
  1311.74        2500.00        3308.42     
  1310.15        2500.00        3308.63     
  1308.56        2500.00        3309.41     
  1306.97        2500.00        3309.62     
  1305.38        2500.00        3308.25     
  1303.79        2500.00        3310.49     
  1302.20        2500.00        3310.92     
  1300.61        2500.00        2877.27     
  1299.02        2500.00        2838.87     
  1297.43        2500.00        2843.41     
  1295.84        2500.00        2853.51     
  1294.25        2500.00        2865.96     
  1292.66        2500.00        2869.83     
  1291.07        2500.00        2873.39     
  1289.48        2500.00        2876.26     
  1287.89        2500.00        2875.68     
  1286.29        2500.00        2884.74     
  1284.70        2500.00        2899.67     
  1283.11        2500.00        3042.39     
  1281.52        2500.00        2902.54     
  1279.93        2500.00        2853.27     
  1278.34        2500.00        2887.46     
  1276.75        2500.00        4063.91     
  1275.16        2500.00        2883.29     
  1273.57        2500.00        2846.15     
  1271.98        2500.00        2870.97     
  1270.39        2500.00        2609.21     
  1268.80        2500.00        3557.38     
  1267.21        2500.00        2596.29     
  1265.62        2500.00        2828.30     
  1264.03        2500.00        2856.78     
  1262.44        2500.00        2874.74     
  1260.85        2500.00        3006.91     
  1259.26        2500.00        2909.20     
  1257.67        2500.00        3004.49     
  1256.07        2500.00        2872.75     
  1254.48        2500.00        2834.82     
  1252.89        2500.00        2874.73     
  1251.30        2500.00        2903.05     
  1249.71        2500.00        2888.89     
  1248.12        2500.00        2884.13     
  1246.53        2500.00        2872.81     
  1244.94        2500.00        2890.70     
  1243.35        2500.00        2808.88     
  1241.76        2500.00        2875.48     
  1240.17        2500.00        2747.67     
  1238.58        2500.00        3053.65     
  1236.99        2500.00        2828.30     
  1235.40        2500.00        3009.77     
  1233.81        2500.00        2925.13     
  1232.22        2500.00        2728.02     
  1230.63        2500.00        2962.71     
  1229.04        2500.00        2677.44     
  1227.45        2500.00        2677.53     
  1225.85        2500.00        2677.62     
  1224.26        2500.00        2677.70     
  1222.67        2500.00        2677.76     
  1221.08        2500.00        2677.86     
  1219.49        2500.00        2677.92     
  1217.90        2500.00        2678.02     
  1216.31        2500.00        2678.11     
  1214.72        2500.00        2678.16     
  1213.13        2500.00        2678.30     
  1211.54        2500.00        2678.33     
  1209.95        2500.00        2678.41     
  1208.36        2500.00        2678.49     
  1206.77        2500.00        2678.57     
  1205.18        2500.00        2678.62     
  1203.59        2500.00        2678.77     
  1202.00        2500.00        2678.82     
  1200.41        2500.00        2678.89     
  1198.82        2500.00        2678.98     
  1197.23        2500.00        2679.05     
  1195.63        2500.00        2679.13     
  1194.04        2500.00        2679.22     
  1192.45        2500.00        2679.30     
  1190.86        2500.00        2679.38     
  1189.27        2500.00        2679.46     
  1187.68        2500.00        2679.54     
  1186.09        2500.00        2679.62     
  1184.50        2500.00        2679.70     
  1182.91        2500.00        2679.79     
  1181.32        2500.00        2679.92     
  1179.73        2500.00        2680.00     
  1178.14        2500.00        2680.02     
  1176.55        2500.00        2680.08     
  1174.96        2500.00        2680.17     
  1173.37        2500.00        2680.29     
  1171.78        2500.00        2680.37     
  1170.19        2500.00        2680.42     
  1168.60        2500.00        2680.53     
  1167.01        2500.00        2680.60     
  1165.41        2500.00        2680.69     
  1163.82        2500.00        2680.76     
  1162.23        2500.00        2680.85     
  1160.64        2500.00        2680.90     
  1159.05        2500.00        2680.97     
  1157.46        2500.00        2681.05     
  1155.87        2500.00        2681.13     
  1154.28        2500.00        2681.20     
  1152.69        2500.00        2681.28     
  1151.10        2500.00        2681.36     
  1149.51        2500.00        2681.45     
  1147.92        2500.00        2681.55     
  1146.33        2500.00        2681.63     
  1144.74        2500.00        2681.71     
  1143.15        2500.00        2681.79     
  1141.56        2500.00        2682.00     
  1139.97        2500.00        2682.08     
  1138.38        2500.00        2682.02     
  1136.79        2500.00        2682.14     
  1135.19        2500.00        2682.22     
  1133.60        2500.00        2682.30     
  1132.01        2500.00        2682.34     
  1130.42        2500.00        2682.46     
  1128.83        2500.00        2682.55     
  1127.24        2500.00        2682.60     
  1125.65        2500.00        2682.72     
  1124.06        2500.00        2682.79     
  1122.47        2500.00        2682.83     
  1120.88        2500.00        2682.95     
  1119.29        2500.00        2683.02     
  1117.70        2500.00        2683.08     
  1116.11        2500.00        2683.15     
  1114.52        2500.00        2683.25     
  1112.93        2500.00        2683.35     
  1111.34        2500.00        2683.41     
  1109.75        2500.00        2683.47     
  1108.16        2500.00        2683.54     
  1106.57        2500.00        2683.65     
  1104.97        2500.00        2683.73     
  1103.38        2500.00        2683.81     
  1101.79        2500.00        2683.89     
  1100.20        2500.00        2683.97     
  1098.61        2500.00        2684.05     
  1097.02        2500.00        2684.13     
  1095.43        2500.00        2684.21     
  1093.84        2500.00        2684.29     
  1092.25        2500.00        2684.37     
  1090.66        2500.00        2684.46     
  1089.07        2500.00        2684.54     
  1087.48        2500.00        2684.62     
  1085.89        2500.00        2684.70     
  1084.30        2500.00        2684.75     
  1082.71        2500.00        2684.83     
  1081.12        2500.00        2684.91     
  1079.53        2500.00        2684.99     
  1077.94        2500.00        2685.06     
  1076.35        2500.00        2685.14     
  1074.75        2500.00        2685.22     
  1073.16        2500.00        2685.29     
  1071.57        2500.00        2685.37     
  1069.98        2500.00        2685.44     
  1068.39        2500.00        2685.52     
  1066.80        2500.00        2685.59     
  1065.21        2500.00        2685.67     
  1063.62        2500.00        2685.75     
  1062.03        2500.00        2685.73     
  1060.44        2500.00        2685.90     
  1058.85        2500.00        2685.97     
  1057.26        2500.00        2686.04     
  1055.67        2500.00        2686.12     
  1054.08        2500.00        2686.28     
  1052.49        2500.00        2686.18     
  1050.90        2500.00        2686.48     
  1049.31        2500.00        2686.59     
  1047.72        2500.00        2686.37     
  1046.13        2500.00        2686.45     
  1044.53        2500.00        2686.53     
  1042.94        2500.00        2686.82     
  1041.35        2500.00        2686.71     
  1039.76        2500.00        2686.80     
  1038.17        2500.00        2686.97     
  1036.58        2500.00        2687.06     
  1034.99        2500.00        2687.20     
  1033.40        2500.00        2687.28     
  1031.81        2500.00        2687.36     
  1030.22        2500.00        2687.45     
  1028.63        2500.00        2687.52     
  1027.04        2500.00        2687.60     
  1025.45        2500.00        2687.69     
  1023.86        2500.00        2687.78     
  1022.27        2500.00        2687.90     
  1020.68        2500.00        2687.98     
  1019.09        2500.00        2688.05     
  1017.50        2500.00        2688.10     
  1015.91        2500.00        2688.09     
  1014.31        2500.00        2688.21     
  1012.72        2500.00        2688.31     
  1011.13        2500.00        2688.36     
  1009.54        2500.00        2688.44     
  1007.95        2500.00        2688.51     
  1006.36        2500.00        2688.57     
  1004.77        2500.00        2688.71     
  1003.18        2500.00        2688.77     
  1001.59        2500.00        2688.86     
  1000.00        2500.00        2688.94     
