|6.6.6
Archiving\03_Data\eqfracLP/QFM_m1/GRV/GRV_6.tab                           
           1
T(K)    
  0.000000000000000E+000
  0.000000000000000E+000
           0
           3
T(K)           P(bar)         rho,kg/m3     
  1557.69        500.000        3271.15     
  1556.29        500.000        3269.19     
  1554.89        500.000        3241.15     
  1553.50        500.000        3242.77     
  1552.10        500.000        3243.93     
  1550.70        500.000        3242.36     
  1549.30        500.000        3245.01     
  1547.91        500.000        3243.83     
  1546.51        500.000        3244.95     
  1545.11        500.000        3245.39     
  1543.71        500.000        3245.78     
  1542.32        500.000        3246.99     
  1540.92        500.000        3246.82     
  1539.52        500.000        3359.62     
  1538.12        500.000        3247.97     
  1536.72        500.000        3248.74     
  1535.33        500.000        3250.30     
  1533.93        500.000        3250.27     
  1532.53        500.000        3250.52     
  1531.13        500.000        3252.04     
  1529.74        500.000        3252.42     
  1528.34        500.000        3246.18     
  1526.94        500.000        3237.34     
  1525.54        500.000        3234.21     
  1524.14        500.000        3235.56     
  1522.75        500.000        3239.03     
  1521.35        500.000        3238.53     
  1519.95        500.000        3239.76     
  1518.55        500.000        3240.82     
  1517.16        500.000        3245.09     
  1515.76        500.000        3243.55     
  1514.36        500.000        3245.03     
  1512.96        500.000        3245.94     
  1511.57        500.000        3248.30     
  1510.17        500.000        3248.48     
  1508.77        500.000        3249.93     
  1507.37        500.000        3251.18     
  1505.97        500.000        3252.25     
  1504.58        500.000        3253.55     
  1503.18        500.000        3254.85     
  1501.78        500.000        3256.11     
  1500.38        500.000        3257.25     
  1498.99        500.000        3258.55     
  1497.59        500.000        3259.78     
  1496.19        500.000        3261.06     
  1494.79        500.000        3262.14     
  1493.39        500.000        3263.27     
  1492.00        500.000        3264.39     
  1490.60        500.000        3266.19     
  1489.20        500.000        3267.22     
  1487.80        500.000        3268.36     
  1486.41        500.000        3269.45     
  1485.01        500.000        3271.12     
  1483.61        500.000        3271.98     
  1482.21        500.000        3273.43     
  1480.82        500.000        3274.71     
  1479.42        500.000        3275.85     
  1478.02        500.000        3277.18     
  1476.62        500.000        3278.25     
  1475.22        500.000        3279.64     
  1473.83        500.000        3280.53     
  1472.43        500.000        3282.25     
  1471.03        500.000        3283.41     
  1469.63        500.000        3284.30     
  1468.24        500.000        3285.72     
  1466.84        500.000        3287.20     
  1465.44        500.000        3287.53     
  1464.04        500.000        3288.82     
  1462.65        500.000        3290.09     
  1461.25        500.000        3291.62     
  1459.85        500.000        3293.91     
  1458.45        500.000        3293.63     
  1457.05        500.000        3295.62     
  1455.66        500.000        3296.25     
  1454.26        500.000        3297.63     
  1452.86        500.000        3298.93     
  1451.46        500.000        3300.60     
  1450.07        500.000        3302.17     
  1448.67        500.000        3304.01     
  1447.27        500.000        3304.79     
  1445.87        500.000        3306.99     
  1444.47        500.000        3311.23     
  1443.08        500.000        3308.68     
  1441.68        500.000        3310.16     
  1440.28        500.000        3311.80     
  1438.88        500.000        3313.74     
  1437.49        500.000        3314.80     
  1436.09        500.000        3316.43     
  1434.69        500.000        3317.30     
  1433.29        500.000        3319.07     
  1431.90        500.000        3320.68     
  1430.50        500.000        3322.30     
  1429.10        500.000        3325.77     
  1427.70        500.000        3326.67     
  1426.30        500.000        3328.04     
  1424.91        500.000        3329.50     
  1423.51        500.000        3330.80     
  1422.11        500.000        3332.27     
  1420.71        500.000        3333.75     
  1419.32        500.000        3335.30     
  1417.92        500.000        3336.64     
  1416.52        500.000        3337.86     
  1415.12        500.000        3339.50     
  1413.72        500.000        3340.88     
  1412.33        500.000        3342.32     
  1410.93        500.000        3344.01     
  1409.53        500.000        3345.32     
  1408.13        500.000        3346.60     
  1406.74        500.000        3348.30     
  1405.34        500.000        3349.62     
  1403.94        500.000        3351.04     
  1402.54        500.000        3352.75     
  1401.15        500.000        3353.79     
  1399.75        500.000        3355.64     
  1398.35        500.000        3357.08     
  1396.95        500.000        3358.37     
  1395.55        500.000        3360.10     
  1394.16        500.000        3363.67     
  1392.76        500.000        3362.35     
  1391.36        500.000        3265.58     
  1389.96        500.000        3170.87     
  1388.57        500.000        3172.91     
  1387.17        500.000        3174.57     
  1385.77        500.000        3176.33     
  1384.37        500.000        3178.40     
  1382.98        500.000        3180.14     
  1381.58        500.000        3181.88     
  1380.18        500.000        3183.95     
  1378.78        500.000        3185.91     
  1377.38        500.000        3188.36     
  1375.99        500.000        3189.70     
  1374.59        500.000        3191.78     
  1373.19        500.000        3193.40     
  1371.79        500.000        3195.46     
  1370.40        500.000        3197.24     
  1369.00        500.000        3199.06     
  1367.60        500.000        3201.11     
  1366.20        500.000        3203.12     
  1364.80        500.000        3205.19     
  1363.41        500.000        3206.94     
  1362.01        500.000        3208.95     
  1360.61        500.000        3210.51     
  1359.21        500.000        3212.28     
  1357.82        500.000        3214.77     
  1356.42        500.000        3216.47     
  1355.02        500.000        3218.45     
  1353.62        500.000        3220.56     
  1352.23        500.000        3222.38     
  1350.83        500.000        3224.46     
  1349.43        500.000        3226.60     
  1348.03        500.000        3230.36     
  1346.63        500.000        3275.17     
  1345.24        500.000        3277.76     
  1343.84        500.000        3280.52     
  1342.44        500.000        3282.77     
  1341.04        500.000        3285.24     
  1339.65        500.000        3287.57     
  1338.25        500.000        3289.64     
  1336.85        500.000        3291.91     
  1335.45        500.000        3294.02     
  1334.05        500.000        3298.93     
  1332.66        500.000        3298.90     
  1331.26        500.000        3300.06     
  1329.86        500.000        3302.16     
  1328.46        500.000        3304.44     
  1327.07        500.000        3306.30     
  1325.67        500.000        3308.24     
  1324.27        500.000        3310.28     
  1322.87        500.000        3312.62     
  1321.48        500.000        3313.77     
  1320.08        500.000        3316.00     
  1318.68        500.000        3318.16     
  1317.28        500.000        3319.92     
  1315.88        500.000        3313.70     
  1314.49        500.000        3323.75     
  1313.09        500.000        3325.45     
  1311.69        500.000        3327.36     
  1310.29        500.000        3329.05     
  1308.90        500.000        3330.87     
  1307.50        500.000        3332.30     
  1306.10        500.000        3356.95     
  1304.70        500.000        3382.41     
  1303.31        500.000        3384.68     
  1301.91        500.000        3386.66     
  1300.51        500.000        3389.34     
  1299.11        500.000        3388.79     
  1297.71        500.000        3391.46     
  1296.32        500.000        3392.32     
  1294.92        500.000        3393.40     
  1293.52        500.000        3394.20     
  1292.12        500.000        3394.45     
  1290.73        500.000        3395.75     
  1289.33        500.000        3396.46     
  1287.93        500.000        3397.22     
  1286.53        500.000        3397.43     
  1285.13        500.000        3398.52     
  1283.74        500.000        3399.01     
  1282.34        500.000        3399.37     
  1280.94        500.000        3400.21     
  1279.54        500.000        3400.71     
  1278.15        500.000        3401.34     
  1276.75        500.000        3400.63     
  1275.35        500.000        3402.54     
  1273.95        500.000        3402.59     
  1272.56        500.000        3403.30     
  1271.16        500.000        3403.20     
  1269.76        500.000        3403.73     
  1268.36        500.000        3404.66     
  1266.96        500.000        3404.29     
  1265.57        500.000        3404.84     
  1264.17        500.000        3404.41     
  1262.77        500.000        2973.31     
  1261.37        500.000        2877.75     
  1259.98        500.000        2877.34     
  1258.58        500.000        2879.07     
  1257.18        500.000        2880.81     
  1255.78        500.000        2882.32     
  1254.38        500.000        2882.08     
  1252.99        500.000        2883.52     
  1251.59        500.000        2885.03     
  1250.19        500.000        2886.33     
  1248.79        500.000        2887.48     
  1247.40        500.000        2888.72     
  1246.00        500.000        2889.62     
  1244.60        500.000        2890.41     
  1243.20        500.000        2891.17     
  1241.81        500.000        2891.72     
  1240.41        500.000        2892.32     
  1239.01        500.000        2892.60     
  1237.61        500.000        2892.91     
  1236.21        500.000        2893.36     
  1234.82        500.000        2892.99     
  1233.42        500.000        2893.20     
  1232.02        500.000        2893.19     
  1230.62        500.000        2892.95     
  1229.23        500.000        2892.80     
  1227.83        500.000        2892.45     
  1226.43        500.000        2892.06     
  1225.03        500.000        2890.44     
  1223.64        500.000        2892.52     
  1222.24        500.000        2890.64     
  1220.84        500.000        2890.04     
  1219.44        500.000        2889.61     
  1218.04        500.000        2889.80     
  1216.65        500.000        2893.49     
  1215.25        500.000        2898.16     
  1213.85        500.000        2752.97     
  1212.45        500.000        2698.53     
  1211.06        500.000        2696.94     
  1209.66        500.000        2696.63     
  1208.26        500.000        2700.08     
  1206.86        500.000        2697.19     
  1205.46        500.000        2696.26     
  1204.07        500.000        2694.86     
  1202.67        500.000        2692.91     
  1201.27        500.000        2694.34     
  1199.87        500.000        2690.02     
  1198.48        500.000        2686.18     
  1197.08        500.000        2689.30     
  1195.68        500.000        2684.63     
  1194.28        500.000        2685.09     
  1192.89        500.000        2682.24     
  1191.49        500.000        2675.88     
  1190.09        500.000        2776.00     
  1188.69        500.000        2655.62     
  1187.29        500.000        2657.67     
  1185.90        500.000        2644.70     
  1184.50        500.000        2636.67     
  1183.10        500.000        2636.72     
  1181.70        500.000        2636.76     
  1180.31        500.000        2637.51     
  1178.91        500.000        2636.87     
  1177.51        500.000        2636.92     
  1176.11        500.000        2636.96     
  1174.71        500.000        2637.01     
  1173.32        500.000        2637.06     
  1171.92        500.000        2637.10     
  1170.52        500.000        2637.15     
  1169.12        500.000        2637.20     
  1167.73        500.000        2637.25     
  1166.33        500.000        2637.30     
  1164.93        500.000        2637.35     
  1163.53        500.000        2637.40     
  1162.14        500.000        2637.45     
  1160.74        500.000        2637.51     
  1159.34        500.000        2637.55     
  1157.94        500.000        2637.60     
  1156.54        500.000        2637.65     
  1155.15        500.000        2637.70     
  1153.75        500.000        2637.75     
  1152.35        500.000        2637.80     
  1150.95        500.000        2637.85     
  1149.56        500.000        2637.90     
  1148.16        500.000        2637.95     
  1146.76        500.000        2638.00     
  1145.36        500.000        2638.05     
  1143.97        500.000        2638.10     
  1142.57        500.000        2638.15     
  1141.17        500.000        2638.29     
  1139.77        500.000        2638.25     
  1138.37        500.000        2638.30     
  1136.98        500.000        2638.35     
  1135.58        500.000        2638.40     
  1134.18        500.000        2638.45     
  1132.78        500.000        2638.50     
  1131.39        500.000        2638.55     
  1129.99        500.000        2638.60     
  1128.59        500.000        2638.65     
  1127.19        500.000        2638.71     
  1125.79        500.000        2638.76     
  1124.40        500.000        2638.81     
  1123.00        500.000        2638.86     
  1121.60        500.000        2638.91     
  1120.20        500.000        2638.96     
  1118.81        500.000        2639.01     
  1117.41        500.000        2639.06     
  1116.01        500.000        2639.11     
  1114.61        500.000        2639.16     
  1113.22        500.000        2639.22     
  1111.82        500.000        2639.27     
  1110.42        500.000        2639.32     
  1109.02        500.000        2639.37     
  1107.62        500.000        2639.42     
  1106.23        500.000        2639.47     
  1104.83        500.000        2639.52     
  1103.43        500.000        2639.58     
  1102.03        500.000        2639.63     
  1100.64        500.000        2639.68     
  1099.24        500.000        2639.73     
  1097.84        500.000        2639.78     
  1096.44        500.000        2639.83     
  1095.04        500.000        2639.89     
  1093.65        500.000        2639.94     
  1092.25        500.000        2639.99     
  1090.85        500.000        2640.04     
  1089.45        500.000        2640.09     
  1088.06        500.000        2640.14     
  1086.66        500.000        2640.20     
  1085.26        500.000        2640.25     
  1083.86        500.000        2640.30     
  1082.47        500.000        2640.34     
  1081.07        500.000        2640.45     
  1079.67        500.000        2640.50     
  1078.27        500.000        2640.57     
  1076.87        500.000        2640.63     
  1075.48        500.000        2640.67     
  1074.08        500.000        2640.67     
  1072.68        500.000        2640.72     
  1071.28        500.000        2640.84     
  1069.89        500.000        2640.90     
  1068.49        500.000        2640.93     
  1067.09        500.000        2641.00     
  1065.69        500.000        2641.05     
  1064.30        500.000        2641.09     
  1062.90        500.000        2641.13     
  1061.50        500.000        2641.18     
  1060.10        500.000        2641.23     
  1058.70        500.000        2641.28     
  1057.31        500.000        2640.88     
  1055.91        500.000        2641.39     
  1054.51        500.000        2641.44     
  1053.11        500.000        2641.44     
  1051.72        500.000        2641.50     
  1050.32        500.000        2641.55     
  1048.92        500.000        2641.60     
  1047.52        500.000        2641.67     
  1046.12        500.000        2641.74     
  1044.73        500.000        2641.75     
  1043.33        500.000        2641.80     
  1041.93        500.000        2641.89     
  1040.53        500.000        2641.95     
  1039.14        500.000        2642.01     
  1037.74        500.000        2642.07     
  1036.34        500.000        2642.07     
  1034.94        500.000        2642.13     
  1033.55        500.000        2642.22     
  1032.15        500.000        2642.27     
  1030.75        500.000        2642.27     
  1029.35        500.000        2642.40     
  1027.95        500.000        2642.38     
  1026.56        500.000        2642.51     
  1025.16        500.000        2642.53     
  1023.76        500.000        2642.61     
  1022.36        500.000        2642.59     
  1020.97        500.000        2642.64     
  1019.57        500.000        2642.69     
  1018.17        500.000        2642.74     
  1016.77        500.000        2642.80     
  1015.37        500.000        2642.33     
  1013.98        500.000        2642.90     
  1012.58        500.000        2642.95     
  1011.18        500.000        2642.50     
  1009.78        500.000        2642.56     
  1008.39        500.000        2642.62     
  1006.99        500.000        2643.16     
  1005.59        500.000        2642.74     
  1004.19        500.000        2643.27     
  1002.80        500.000        2642.86     
  1001.40        500.000        2642.91     
  1000.00        500.000        2643.42     
