|6.6.6
Archiving\03_Data\DfracLP/QFM_m0.5/K22/K22_6.tab                      
           1
T(K)    
  0.000000000000000E+000
  0.000000000000000E+000
           0
           3
T(K)           P(bar)         rho,kg/m3     
  2000.00        500.000        3234.64     
  1997.49        500.000        2885.36     
  1994.99        500.000        2885.94     
  1992.48        500.000        2886.52     
  1989.97        500.000        2887.11     
  1987.47        500.000        2887.69     
  1984.96        500.000        2888.27     
  1982.46        500.000        2888.85     
  1979.95        500.000        2889.43     
  1977.44        500.000        2890.02     
  1974.94        500.000        2890.60     
  1972.43        500.000        2891.18     
  1969.92        500.000        2891.76     
  1967.42        500.000        2892.34     
  1964.91        500.000        2892.93     
  1962.41        500.000        2893.51     
  1959.90        500.000        2894.09     
  1957.39        500.000        2894.67     
  1954.89        500.000        2895.25     
  1952.38        500.000        2895.84     
  1949.87        500.000        2896.47     
  1947.37        500.000        2897.00     
  1944.86        500.000        2897.58     
  1942.36        500.000        2898.16     
  1939.85        500.000        2898.75     
  1937.34        500.000        2899.33     
  1934.84        500.000        2899.91     
  1932.33        500.000        3114.37     
  1929.82        500.000        3115.79     
  1927.32        500.000        3117.49     
  1924.81        500.000        3118.35     
  1922.31        500.000        3120.15     
  1919.80        500.000        3121.40     
  1917.29        500.000        3123.09     
  1914.79        500.000        3123.81     
  1912.28        500.000        3140.59     
  1909.77        500.000        3148.29     
  1907.27        500.000        3149.59     
  1904.76        500.000        3151.16     
  1902.26        500.000        3153.67     
  1899.75        500.000        3153.21     
  1897.24        500.000        3155.96     
  1894.74        500.000        3157.15     
  1892.23        500.000        3158.67     
  1889.72        500.000        3159.95     
  1887.22        500.000        3161.33     
  1884.71        500.000        3162.93     
  1882.21        500.000        3164.31     
  1879.70        500.000        3166.05     
  1877.19        500.000        3167.94     
  1874.69        500.000        3169.79     
  1872.18        500.000        3169.91     
  1869.67        500.000        3172.12     
  1867.17        500.000        3173.77     
  1864.66        500.000        3175.01     
  1862.16        500.000        3176.78     
  1859.65        500.000        3177.88     
  1857.14        500.000        3179.35     
  1854.64        500.000        3181.89     
  1852.13        500.000        3183.24     
  1849.62        500.000        3183.74     
  1847.12        500.000        3186.29     
  1844.61        500.000        3187.75     
  1842.11        500.000        3188.86     
  1839.60        500.000        3190.91     
  1837.09        500.000        3192.46     
  1834.59        500.000        3194.24     
  1832.08        500.000        3195.01     
  1829.57        500.000        3196.87     
  1827.07        500.000        3198.40     
  1824.56        500.000        3200.44     
  1822.06        500.000        3201.50     
  1819.55        500.000        3203.67     
  1817.04        500.000        3205.23     
  1814.54        500.000        3206.05     
  1812.03        500.000        3208.55     
  1809.52        500.000        3209.50     
  1807.02        500.000        3210.71     
  1804.51        500.000        3212.76     
  1802.01        500.000        3214.51     
  1799.50        500.000        3215.44     
  1796.99        500.000        3217.33     
  1794.49        500.000        3218.68     
  1791.98        500.000        3217.98     
  1789.47        500.000        3221.92     
  1786.97        500.000        3223.52     
  1784.46        500.000        3225.61     
  1781.95        500.000        3225.73     
  1779.45        500.000        3253.55     
  1776.94        500.000        3228.00     
  1774.44        500.000        3231.20     
  1771.93        500.000        3231.19     
  1769.42        500.000        3244.42     
  1766.92        500.000        3236.36     
  1764.41        500.000        3237.96     
  1761.90        500.000        3242.83     
  1759.40        500.000        3240.93     
  1756.89        500.000        3242.89     
  1754.39        500.000        3244.16     
  1751.88        500.000        3246.70     
  1749.37        500.000        3247.41     
  1746.87        500.000        3248.17     
  1744.36        500.000        3250.21     
  1741.85        500.000        3252.05     
  1739.35        500.000        3253.65     
  1736.84        500.000        3256.88     
  1734.34        500.000        3256.28     
  1731.83        500.000        3258.04     
  1729.32        500.000        3259.86     
  1726.82        500.000        3261.81     
  1724.31        500.000        3264.06     
  1721.80        500.000        3264.34     
  1719.30        500.000        3267.18     
  1716.79        500.000        3275.68     
  1714.29        500.000        3269.67     
  1711.78        500.000        3271.35     
  1709.27        500.000        3272.89     
  1706.77        500.000        3274.79     
  1704.26        500.000        3283.61     
  1701.75        500.000        3277.20     
  1699.25        500.000        3279.09     
  1696.74        500.000        3280.59     
  1694.24        500.000        3281.36     
  1691.73        500.000        3283.85     
  1689.22        500.000        3284.81     
  1686.72        500.000        3285.94     
  1684.21        500.000        3288.06     
  1681.70        500.000        3290.14     
  1679.20        500.000        3294.08     
  1676.69        500.000        3292.87     
  1674.19        500.000        3294.25     
  1671.68        500.000        3295.47     
  1669.17        500.000        3298.21     
  1666.67        500.000        3298.86     
  1664.16        500.000        3300.95     
  1661.65        500.000        3303.01     
  1659.15        500.000        3303.60     
  1656.64        500.000        3377.45     
  1654.14        500.000        3305.65     
  1651.63        500.000        3307.70     
  1649.12        500.000        3310.55     
  1646.62        500.000        3312.30     
  1644.11        500.000        3312.64     
  1641.60        500.000        3313.80     
  1639.10        500.000        3315.69     
  1636.59        500.000        3318.24     
  1634.09        500.000        3321.03     
  1631.58        500.000        3319.96     
  1629.07        500.000        3321.95     
  1626.57        500.000        3323.35     
  1624.06        500.000        3322.46     
  1621.55        500.000        3326.45     
  1619.05        500.000        3327.96     
  1616.54        500.000        3329.36     
  1614.04        500.000        3330.05     
  1611.53        500.000        3330.11     
  1609.02        500.000        3240.56     
  1606.52        500.000        3234.13     
  1604.01        500.000        3234.39     
  1601.50        500.000        3236.69     
  1599.00        500.000        3237.34     
  1596.49        500.000        3237.94     
  1593.98        500.000        3239.46     
  1591.48        500.000        3240.06     
  1588.97        500.000        3241.22     
  1586.47        500.000        3242.45     
  1583.96        500.000        3242.70     
  1581.45        500.000        3243.86     
  1578.95        500.000        3245.22     
  1576.44        500.000        3245.69     
  1573.93        500.000        3247.34     
  1571.43        500.000        3247.95     
  1568.92        500.000        3249.18     
  1566.42        500.000        3249.80     
  1563.91        500.000        3250.46     
  1561.40        500.000        3251.42     
  1558.90        500.000        3252.33     
  1556.39        500.000        3253.52     
  1553.88        500.000        3254.27     
  1551.38        500.000        3255.46     
  1548.87        500.000        3255.50     
  1546.37        500.000        3256.59     
  1543.86        500.000        3258.25     
  1541.35        500.000        3258.74     
  1538.85        500.000        3259.42     
  1536.34        500.000        3260.49     
  1533.83        500.000        3261.08     
  1531.33        500.000        3261.88     
  1528.82        500.000        3263.33     
  1526.32        500.000        3263.44     
  1523.81        500.000        3265.01     
  1521.30        500.000        3268.65     
  1518.80        500.000        3274.12     
  1516.29        500.000        3267.46     
  1513.78        500.000        3279.40     
  1511.28        500.000        3270.19     
  1508.77        500.000        3270.69     
  1506.27        500.000        3272.59     
  1503.76        500.000        3273.58     
  1501.25        500.000        3274.41     
  1498.75        500.000        3275.96     
  1496.24        500.000        3276.55     
  1493.73        500.000        3278.30     
  1491.23        500.000        3278.61     
  1488.72        500.000        3279.92     
  1486.22        500.000        3280.96     
  1483.71        500.000        3282.54     
  1481.20        500.000        3283.42     
  1478.70        500.000        3284.61     
  1476.19        500.000        3286.15     
  1473.68        500.000        3286.85     
  1471.18        500.000        3288.37     
  1468.67        500.000        3289.36     
  1466.17        500.000        3277.63     
  1463.66        500.000        3274.99     
  1461.15        500.000        3277.15     
  1458.65        500.000        3269.32     
  1456.14        500.000        3262.24     
  1453.63        500.000        3264.46     
  1451.13        500.000        3266.44     
  1448.62        500.000        3267.54     
  1446.12        500.000        3274.74     
  1443.61        500.000        3269.96     
  1441.10        500.000        3280.41     
  1438.60        500.000        3277.85     
  1436.09        500.000        3280.14     
  1433.58        500.000        3282.34     
  1431.08        500.000        3284.64     
  1428.57        500.000        3287.25     
  1426.07        500.000        3289.02     
  1423.56        500.000        3291.71     
  1421.05        500.000        3294.19     
  1418.55        500.000        3296.14     
  1416.04        500.000        3176.47     
  1413.53        500.000        3122.27     
  1411.03        500.000        3125.15     
  1408.52        500.000        3127.91     
  1406.02        500.000        3130.77     
  1403.51        500.000        3133.46     
  1401.00        500.000        3136.45     
  1398.50        500.000        3139.16     
  1395.99        500.000        3142.04     
  1393.48        500.000        3144.87     
  1390.98        500.000        3147.80     
  1388.47        500.000        3150.60     
  1385.96        500.000        3153.52     
  1383.46        500.000        3156.37     
  1380.95        500.000        3160.93     
  1378.45        500.000        3180.93     
  1375.94        500.000        3184.92     
  1373.43        500.000        3189.04     
  1370.93        500.000        3193.19     
  1368.42        500.000        3197.23     
  1365.91        500.000        3201.25     
  1363.41        500.000        3205.52     
  1360.90        500.000        3209.66     
  1358.40        500.000        3213.77     
  1355.89        500.000        3218.12     
  1353.38        500.000        3222.24     
  1350.88        500.000        3226.54     
  1348.37        500.000        3230.73     
  1345.86        500.000        3235.13     
  1343.36        500.000        3238.39     
  1340.85        500.000        3243.71     
  1338.35        500.000        3247.39     
  1335.84        500.000        3251.49     
  1333.33        500.000        3255.42     
  1330.83        500.000        3259.56     
  1328.32        500.000        3263.39     
  1325.81        500.000        3267.13     
  1323.31        500.000        3270.88     
  1320.80        500.000        3274.52     
  1318.30        500.000        3278.07     
  1315.79        500.000        3281.41     
  1313.28        500.000        3284.71     
  1310.78        500.000        3287.98     
  1308.27        500.000        3290.94     
  1305.76        500.000        3291.49     
  1303.26        500.000        3299.42     
  1300.75        500.000        3299.12     
  1298.25        500.000        3301.55     
  1295.74        500.000        3302.67     
  1293.23        500.000        3306.81     
  1290.73        500.000        3307.88     
  1288.22        500.000        3309.44     
  1285.71        500.000        3311.18     
  1283.21        500.000        3312.32     
  1280.70        500.000        3313.65     
  1278.20        500.000        3314.41     
  1275.69        500.000        3315.22     
  1273.18        500.000        3315.65     
  1270.68        500.000        3316.29     
  1268.17        500.000        3316.15     
  1265.66        500.000        3316.11     
  1263.16        500.000        3315.91     
  1260.65        500.000        3315.30     
  1258.15        500.000        3325.82     
  1255.64        500.000        3365.97     
  1253.13        500.000        3364.11     
  1250.63        500.000        3308.10     
  1248.12        500.000        2841.75     
  1245.61        500.000        2840.33     
  1243.11        500.000        2838.65     
  1240.60        500.000        2836.98     
  1238.10        500.000        2835.21     
  1235.59        500.000        2833.31     
  1233.08        500.000        2831.37     
  1230.58        500.000        2829.72     
  1228.07        500.000        2827.77     
  1225.56        500.000        2825.97     
  1223.06        500.000        2824.14     
  1220.55        500.000        2822.54     
  1218.05        500.000        2820.57     
  1215.54        500.000        2818.71     
  1213.03        500.000        2818.88     
  1210.53        500.000        2815.62     
  1208.02        500.000        2815.72     
  1205.51        500.000        2786.54     
  1203.01        500.000        2812.60     
  1200.50        500.000        2800.98     
  1197.99        500.000        2799.53     
  1195.49        500.000        2793.95     
  1192.98        500.000        2793.77     
  1190.48        500.000        2794.52     
  1187.97        500.000        2791.92     
  1185.46        500.000        2724.48     
  1182.96        500.000        2634.65     
  1180.45        500.000        2634.55     
  1177.94        500.000        2634.47     
  1175.44        500.000        2634.40     
  1172.93        500.000        2634.35     
  1170.43        500.000        2634.31     
  1167.92        500.000        2634.29     
  1165.41        500.000        2634.28     
  1162.91        500.000        2634.21     
  1160.40        500.000        2634.11     
  1157.89        500.000        2633.26     
  1155.39        500.000        2633.88     
  1152.88        500.000        2634.73     
  1150.38        500.000        2636.10     
  1147.87        500.000        2637.10     
  1145.36        500.000        2636.86     
  1142.86        500.000        2637.28     
  1140.35        500.000        2637.37     
  1137.84        500.000        2637.28     
  1135.34        500.000        2637.37     
  1132.83        500.000        2637.47     
  1130.33        500.000        2637.56     
  1127.82        500.000        2637.65     
  1125.31        500.000        2637.74     
  1122.81        500.000        2637.84     
  1120.30        500.000        2637.93     
  1117.79        500.000        2638.02     
  1115.29        500.000        2638.12     
  1112.78        500.000        2638.21     
  1110.28        500.000        2638.30     
  1107.77        500.000        2638.40     
  1105.26        500.000        2638.49     
  1102.76        500.000        2638.58     
  1100.25        500.000        2638.68     
  1097.74        500.000        2638.87     
  1095.24        500.000        2638.96     
  1092.73        500.000        2639.05     
  1090.23        500.000        2639.14     
  1087.72        500.000        2639.15     
  1085.21        500.000        2639.32     
  1082.71        500.000        2639.41     
  1080.20        500.000        2639.50     
  1077.69        500.000        2639.60     
  1075.19        500.000        2639.69     
  1072.68        500.000        2639.71     
  1070.18        500.000        2639.81     
  1067.67        500.000        2639.97     
  1065.16        500.000        2640.00     
  1062.66        500.000        2640.09     
  1060.15        500.000        2640.18     
  1057.64        500.000        2640.28     
  1055.14        500.000        2640.37     
  1052.63        500.000        2640.47     
  1050.13        500.000        2640.58     
  1047.62        500.000        2640.71     
  1045.11        500.000        2640.77     
  1042.61        500.000        2640.89     
  1040.10        500.000        2640.98     
  1037.59        500.000        2641.08     
  1035.09        500.000        2641.16     
  1032.58        500.000        2641.26     
  1030.08        500.000        2641.36     
  1027.57        500.000        2641.47     
  1025.06        500.000        2641.57     
  1022.56        500.000        2641.68     
  1020.05        500.000        2641.78     
  1017.54        500.000        2641.89     
  1015.04        500.000        2642.00     
  1012.53        500.000        2642.10     
  1010.03        500.000        2642.21     
  1007.52        500.000        2642.31     
  1005.01        500.000        2642.42     
  1002.51        500.000        2642.52     
  1000.00        500.000        2642.63     
