|6.6.6
Archiving\03_Data\frac/QFM_m2.25/LAR/LAR_6.tab                            
           1
T(K)    
  0.000000000000000E+000
  0.000000000000000E+000
           0
           3
T(K)           P(bar)         rho,kg/m3     
  2000.00        2500.00        3562.95     
  1997.49        2500.00        3563.32     
  1994.99        2500.00        3563.68     
  1992.48        2500.00        3564.05     
  1989.97        2500.00        3564.42     
  1987.47        2500.00        3564.78     
  1984.96        2500.00        3565.15     
  1982.46        2500.00        3565.52     
  1979.95        2500.00        3565.88     
  1977.44        2500.00        3566.25     
  1974.94        2500.00        3566.61     
  1972.43        2500.00        3566.98     
  1969.92        2500.00        3567.34     
  1967.42        2500.00        3567.71     
  1964.91        2500.00        3568.08     
  1962.41        2500.00        3568.44     
  1959.90        2500.00        3568.81     
  1957.39        2500.00        3569.17     
  1954.89        2500.00        3569.54     
  1952.38        2500.00        3569.90     
  1949.87        2500.00        3570.27     
  1947.37        2500.00        3570.63     
  1944.86        2500.00        3571.00     
  1942.36        2500.00        3571.36     
  1939.85        2500.00        3571.72     
  1937.34        2500.00        3572.09     
  1934.84        2500.00        3572.45     
  1932.33        2500.00        3572.82     
  1929.82        2500.00        3573.18     
  1927.32        2500.00        3573.54     
  1924.81        2500.00        3573.91     
  1922.31        2500.00        3574.27     
  1919.80        2500.00        3574.63     
  1917.29        2500.00        3575.00     
  1914.79        2500.00        3575.36     
  1912.28        2500.00        3575.72     
  1909.77        2500.00        3576.08     
  1907.27        2500.00        3576.45     
  1904.76        2500.00        3576.81     
  1902.26        2500.00        3577.17     
  1899.75        2500.00        3577.53     
  1897.24        2500.00        3577.90     
  1894.74        2500.00        3578.26     
  1892.23        2500.00        3578.62     
  1889.72        2500.00        3578.98     
  1887.22        2500.00        3579.34     
  1884.71        2500.00        3579.71     
  1882.21        2500.00        3580.07     
  1879.70        2500.00        3580.43     
  1877.19        2500.00        3580.79     
  1874.69        2500.00        3581.15     
  1872.18        2500.00        3581.51     
  1869.67        2500.00        3581.87     
  1867.17        2500.00        3582.23     
  1864.66        2500.00        3582.59     
  1862.16        2500.00        3582.95     
  1859.65        2500.00        3583.31     
  1857.14        2500.00        3583.67     
  1854.64        2500.00        3584.03     
  1852.13        2500.00        3584.39     
  1849.62        2500.00        3584.75     
  1847.12        2500.00        3585.11     
  1844.61        2500.00        3585.47     
  1842.11        2500.00        3585.83     
  1839.60        2500.00        3586.19     
  1837.09        2500.00        3586.55     
  1834.59        2500.00        3586.91     
  1832.08        2500.00        3587.27     
  1829.57        2500.00        3587.63     
  1827.07        2500.00        3587.99     
  1824.56        2500.00        3588.35     
  1822.06        2500.00        3588.70     
  1819.55        2500.00        3589.06     
  1817.04        2500.00        3589.42     
  1814.54        2500.00        3589.78     
  1812.03        2500.00        3590.14     
  1809.52        2500.00        3590.50     
  1807.02        2500.00        3590.85     
  1804.51        2500.00        3591.21     
  1802.01        2500.00        3591.57     
  1799.50        2500.00        3591.93     
  1796.99        2500.00        3592.28     
  1794.49        2500.00        3592.64     
  1791.98        2500.00        3593.00     
  1789.47        2500.00        3593.36     
  1786.97        2500.00        3593.71     
  1784.46        2500.00        3594.07     
  1781.95        2500.00        3594.43     
  1779.45        2500.00        3594.78     
  1776.94        2500.00        3595.14     
  1774.44        2500.00        3595.49     
  1771.93        2500.00        3595.85     
  1769.42        2500.00        3596.21     
  1766.92        2500.00        3596.56     
  1764.41        2500.00        3596.92     
  1761.90        2500.00        3597.27     
  1759.40        2500.00        3597.63     
  1756.89        2500.00        3597.99     
  1754.39        2500.00        3598.34     
  1751.88        2500.00        3598.70     
  1749.37        2500.00        3599.05     
  1746.87        2500.00        3599.41     
  1744.36        2500.00        3599.76     
  1741.85        2500.00        3600.12     
  1739.35        2500.00        3600.47     
  1736.84        2500.00        3600.83     
  1734.34        2500.00        3601.18     
  1731.83        2500.00        3601.53     
  1729.32        2500.00        3601.89     
  1726.82        2500.00        3602.24     
  1724.31        2500.00        3602.60     
  1721.80        2500.00        3602.95     
  1719.30        2500.00        3603.30     
  1716.79        2500.00        3603.66     
  1714.29        2500.00        3604.01     
  1711.78        2500.00        3604.36     
  1709.27        2500.00        3604.72     
  1706.77        2500.00        3605.07     
  1704.26        2500.00        3605.42     
  1701.75        2500.00        3605.78     
  1699.25        2500.00        3606.13     
  1696.74        2500.00        3606.48     
  1694.24        2500.00        3606.83     
  1691.73        2500.00        3607.19     
  1689.22        2500.00        3607.54     
  1686.72        2500.00        3607.89     
  1684.21        2500.00        3608.24     
  1681.70        2500.00        3610.97     
  1679.20        2500.00        3613.08     
  1676.69        2500.00        3619.21     
  1674.19        2500.00        3619.42     
  1671.68        2500.00        3619.73     
  1669.17        2500.00        3620.04     
  1666.67        2500.00        3620.16     
  1664.16        2500.00        3620.47     
  1661.65        2500.00        3620.78     
  1659.15        2500.00        3621.05     
  1656.64        2500.00        3621.81     
  1654.14        2500.00        3621.10     
  1651.63        2500.00        3621.86     
  1649.12        2500.00        3622.13     
  1646.62        2500.00        3622.42     
  1644.11        2500.00        3622.68     
  1641.60        2500.00        3622.94     
  1639.10        2500.00        3623.23     
  1636.59        2500.00        3624.66     
  1634.09        2500.00        3620.58     
  1631.58        2500.00        3429.11     
  1629.07        2500.00        3431.34     
  1626.57        2500.00        3433.96     
  1624.06        2500.00        3436.58     
  1621.55        2500.00        3439.14     
  1619.05        2500.00        3440.81     
  1616.54        2500.00        3442.49     
  1614.04        2500.00        3446.30     
  1611.53        2500.00        3446.06     
  1609.02        2500.00        3457.86     
  1606.52        2500.00        3452.61     
  1604.01        2500.00        3452.60     
  1601.50        2500.00        3455.62     
  1599.00        2500.00        3456.37     
  1596.49        2500.00        3459.42     
  1593.98        2500.00        3461.65     
  1591.48        2500.00        3463.40     
  1588.97        2500.00        3465.78     
  1586.47        2500.00        3468.13     
  1583.96        2500.00        3470.43     
  1581.45        2500.00        3471.28     
  1578.95        2500.00        3474.74     
  1576.44        2500.00        3475.48     
  1573.93        2500.00        3477.60     
  1571.43        2500.00        3480.30     
  1568.92        2500.00        3482.55     
  1566.42        2500.00        3484.73     
  1563.91        2500.00        3494.58     
  1561.40        2500.00        3489.91     
  1558.90        2500.00        3490.95     
  1556.39        2500.00        3492.87     
  1553.88        2500.00        3494.81     
  1551.38        2500.00        3357.14     
  1548.87        2500.00        3334.54     
  1546.37        2500.00        3336.00     
  1543.86        2500.00        3337.19     
  1541.35        2500.00        3339.03     
  1538.85        2500.00        3339.69     
  1536.34        2500.00        3341.59     
  1533.83        2500.00        3343.56     
  1531.33        2500.00        3344.22     
  1528.82        2500.00        3348.50     
  1526.32        2500.00        3343.76     
  1523.81        2500.00        3347.29     
  1521.30        2500.00        3348.15     
  1518.80        2500.00        3349.45     
  1516.29        2500.00        3313.01     
  1513.78        2500.00        3312.88     
  1511.28        2500.00        3314.88     
  1508.77        2500.00        3316.85     
  1506.27        2500.00        3318.12     
  1503.76        2500.00        3320.16     
  1501.25        2500.00        3321.70     
  1498.75        2500.00        3323.78     
  1496.24        2500.00        3325.12     
  1493.73        2500.00        3328.93     
  1491.23        2500.00        3335.78     
  1488.72        2500.00        3337.11     
  1486.22        2500.00        3339.71     
  1483.71        2500.00        3339.91     
  1481.20        2500.00        3341.19     
  1478.70        2500.00        3341.74     
  1476.19        2500.00        3341.83     
  1473.68        2500.00        3341.81     
  1471.18        2500.00        3316.50     
  1468.67        2500.00        3318.84     
  1466.17        2500.00        3321.16     
  1463.66        2500.00        3323.45     
  1461.15        2500.00        3325.83     
  1458.65        2500.00        3327.89     
  1456.14        2500.00        3330.35     
  1453.63        2500.00        3332.44     
  1451.13        2500.00        3334.94     
  1448.62        2500.00        3337.35     
  1446.12        2500.00        3339.85     
  1443.61        2500.00        3342.29     
  1441.10        2500.00        3344.71     
  1438.60        2500.00        3347.03     
  1436.09        2500.00        3349.59     
  1433.58        2500.00        3351.97     
  1431.08        2500.00        3354.50     
  1428.57        2500.00        3367.27     
  1426.07        2500.00        3375.11     
  1423.56        2500.00        3377.91     
  1421.05        2500.00        3379.42     
  1418.55        2500.00        3382.69     
  1416.04        2500.00        3384.18     
  1413.53        2500.00        3386.93     
  1411.03        2500.00        3388.67     
  1408.52        2500.00        3390.89     
  1406.02        2500.00        3388.41     
  1403.51        2500.00        3223.96     
  1401.00        2500.00        3209.10     
  1398.50        2500.00        3210.52     
  1395.99        2500.00        3221.05     
  1393.48        2500.00        3221.27     
  1390.98        2500.00        3225.62     
  1388.47        2500.00        3229.04     
  1385.96        2500.00        3233.64     
  1383.46        2500.00        3237.59     
  1380.95        2500.00        3241.39     
  1378.45        2500.00        3244.11     
  1375.94        2500.00        3249.00     
  1373.43        2500.00        3252.31     
  1370.93        2500.00        3256.16     
  1368.42        2500.00        3259.74     
  1365.91        2500.00        3263.18     
  1363.41        2500.00        3266.06     
  1360.90        2500.00        3269.35     
  1358.40        2500.00        3272.63     
  1355.89        2500.00        3275.67     
  1353.38        2500.00        3278.87     
  1350.88        2500.00        3282.02     
  1348.37        2500.00        3286.12     
  1345.86        2500.00        3287.77     
  1343.36        2500.00        3291.30     
  1340.85        2500.00        3294.60     
  1338.35        2500.00        3296.51     
  1335.84        2500.00        3299.00     
  1333.33        2500.00        3301.55     
  1330.83        2500.00        3303.40     
  1328.32        2500.00        3305.37     
  1325.81        2500.00        3306.47     
  1323.31        2500.00        3309.36     
  1320.80        2500.00        3310.43     
  1318.30        2500.00        3312.54     
  1315.79        2500.00        3313.65     
  1313.28        2500.00        3315.18     
  1310.78        2500.00        3315.48     
  1308.27        2500.00        3316.42     
  1305.76        2500.00        3316.52     
  1303.26        2500.00        3345.02     
  1300.75        2500.00        3351.09     
  1298.25        2500.00        3352.38     
  1295.74        2500.00        2981.21     
  1293.23        2500.00        2866.36     
  1290.73        2500.00        2871.63     
  1288.22        2500.00        2875.94     
  1285.71        2500.00        2879.50     
  1283.21        2500.00        2882.05     
  1280.70        2500.00        2884.32     
  1278.20        2500.00        2885.68     
  1275.69        2500.00        2886.34     
  1273.18        2500.00        2886.37     
  1270.68        2500.00        2869.76     
  1268.17        2500.00        2910.97     
  1265.66        2500.00        2900.86     
  1263.16        2500.00        2850.22     
  1260.65        2500.00        2848.80     
  1258.15        2500.00        2921.38     
  1255.64        2500.00        2881.99     
  1253.13        2500.00        2874.34     
  1250.63        2500.00        2868.93     
  1248.12        2500.00        2874.26     
  1245.61        2500.00        2866.25     
  1243.11        2500.00        2814.78     
  1240.60        2500.00        3032.63     
  1238.10        2500.00        2814.87     
  1235.59        2500.00        2977.27     
  1233.08        2500.00        2798.59     
  1230.58        2500.00        2585.43     
  1228.07        2500.00        2709.40     
  1225.56        2500.00        2709.45     
  1223.06        2500.00        2709.70     
  1220.55        2500.00        2709.80     
  1218.05        2500.00        2709.22     
  1215.54        2500.00        2709.83     
  1213.03        2500.00        2710.24     
  1210.53        2500.00        2709.94     
  1208.02        2500.00        2709.96     
  1205.51        2500.00        2710.67     
  1203.01        2500.00        2710.87     
  1200.50        2500.00        2710.69     
  1197.99        2500.00        2711.07     
  1195.49        2500.00        2711.19     
  1192.98        2500.00        2710.72     
  1190.48        2500.00        2711.00     
  1187.97        2500.00        2702.23     
  1185.46        2500.00        2711.26     
  1182.96        2500.00        2711.40     
  1180.45        2500.00        2711.54     
  1177.94        2500.00        2711.67     
  1175.44        2500.00        2711.79     
  1172.93        2500.00        2711.92     
  1170.43        2500.00        2712.05     
  1167.92        2500.00        2712.19     
  1165.41        2500.00        2712.24     
  1162.91        2500.00        2712.38     
  1160.40        2500.00        2712.59     
  1157.89        2500.00        2712.72     
  1155.39        2500.00        2712.86     
  1152.88        2500.00        2712.99     
  1150.38        2500.00        2713.01     
  1147.87        2500.00        2713.14     
  1145.36        2500.00        2713.27     
  1142.86        2500.00        2713.40     
  1140.35        2500.00        2713.48     
  1137.84        2500.00        2713.61     
  1135.34        2500.00        2713.74     
  1132.83        2500.00        2713.87     
  1130.33        2500.00        2704.04     
  1127.82        2500.00        2714.13     
  1125.31        2500.00        2714.27     
  1122.81        2500.00        2714.40     
  1120.30        2500.00        2714.53     
  1117.79        2500.00        2714.69     
  1115.29        2500.00        2714.79     
  1112.78        2500.00        2714.91     
  1110.28        2500.00        2715.07     
  1107.77        2500.00        2715.20     
  1105.26        2500.00        2715.30     
  1102.76        2500.00        2715.46     
  1100.25        2500.00        2715.59     
  1097.74        2500.00        2715.71     
  1095.24        2500.00        2715.50     
  1092.73        2500.00        2715.97     
  1090.23        2500.00        2716.10     
  1087.72        2500.00        2716.22     
  1085.21        2500.00        2716.57     
  1082.71        2500.00        2716.44     
  1080.20        2500.00        2716.58     
  1077.69        2500.00        2716.70     
  1075.19        2500.00        2716.94     
  1072.68        2500.00        2716.99     
  1070.18        2500.00        2717.08     
  1067.67        2500.00        2717.20     
  1065.16        2500.00        2717.42     
  1062.66        2500.00        2717.75     
  1060.15        2500.00        2717.57     
  1057.64        2500.00        2718.00     
  1055.14        2500.00        2717.85     
  1052.63        2500.00        2717.97     
  1050.13        2500.00        2718.38     
  1047.62        2500.00        2717.96     
  1045.11        2500.00        2718.65     
  1042.61        2500.00        2718.46     
  1040.10        2500.00        2718.91     
  1037.59        2500.00        2718.68     
  1035.09        2500.00        2719.23     
  1032.58        2500.00        2719.30     
  1030.08        2500.00        2719.85     
  1027.57        2500.00        2713.68     
  1025.06        2500.00        2710.11     
  1022.56        2500.00        2714.14     
  1020.05        2500.00        2713.61     
  1017.54        2500.00        2713.82     
  1015.04        2500.00        2715.27     
  1012.53        2500.00        2715.14     
  1010.03        2500.00        2713.84     
  1007.52        2500.00        2713.89     
  1005.01        2500.00        2714.35     
  1002.51        2500.00        2714.40     
  1000.00        2500.00        2714.47     
