|6.6.6
Archiving\03_Data\fracLP/QFM_m0.75/LAR/LAR_6.tab                          
           1
T(K)    
  0.000000000000000E+000
  0.000000000000000E+000
           0
           3
T(K)           P(bar)         rho,kg/m3     
  2000.00        500.000        3552.33     
  1997.49        500.000        3552.70     
  1994.99        500.000        3553.07     
  1992.48        500.000        3553.44     
  1989.97        500.000        3553.81     
  1987.47        500.000        3554.18     
  1984.96        500.000        3554.55     
  1982.46        500.000        3554.92     
  1979.95        500.000        3555.29     
  1977.44        500.000        3555.66     
  1974.94        500.000        3556.03     
  1972.43        500.000        3556.40     
  1969.92        500.000        3556.77     
  1967.42        500.000        3557.14     
  1964.91        500.000        3557.50     
  1962.41        500.000        3557.87     
  1959.90        500.000        3558.24     
  1957.39        500.000        3558.61     
  1954.89        500.000        3558.98     
  1952.38        500.000        3559.35     
  1949.87        500.000        3559.72     
  1947.37        500.000        3560.08     
  1944.86        500.000        3560.45     
  1942.36        500.000        3560.82     
  1939.85        500.000        3561.19     
  1937.34        500.000        3561.56     
  1934.84        500.000        3561.92     
  1932.33        500.000        3562.29     
  1929.82        500.000        3562.66     
  1927.32        500.000        3563.03     
  1924.81        500.000        3563.39     
  1922.31        500.000        3563.76     
  1919.80        500.000        3564.13     
  1917.29        500.000        3564.49     
  1914.79        500.000        3564.86     
  1912.28        500.000        3565.23     
  1909.77        500.000        3565.59     
  1907.27        500.000        3565.96     
  1904.76        500.000        3566.32     
  1902.26        500.000        3566.69     
  1899.75        500.000        3567.06     
  1897.24        500.000        3567.42     
  1894.74        500.000        3567.79     
  1892.23        500.000        3568.15     
  1889.72        500.000        3568.52     
  1887.22        500.000        3568.88     
  1884.71        500.000        3569.25     
  1882.21        500.000        3569.61     
  1879.70        500.000        3569.98     
  1877.19        500.000        3570.34     
  1874.69        500.000        3570.71     
  1872.18        500.000        3571.07     
  1869.67        500.000        3571.44     
  1867.17        500.000        3571.80     
  1864.66        500.000        3572.16     
  1862.16        500.000        3572.53     
  1859.65        500.000        3572.89     
  1857.14        500.000        3573.25     
  1854.64        500.000        3573.62     
  1852.13        500.000        3573.98     
  1849.62        500.000        3574.35     
  1847.12        500.000        3574.71     
  1844.61        500.000        3575.07     
  1842.11        500.000        3575.43     
  1839.60        500.000        3575.80     
  1837.09        500.000        3576.16     
  1834.59        500.000        3576.52     
  1832.08        500.000        3576.88     
  1829.57        500.000        3577.25     
  1827.07        500.000        3577.61     
  1824.56        500.000        3577.97     
  1822.06        500.000        3578.33     
  1819.55        500.000        3578.70     
  1817.04        500.000        3579.06     
  1814.54        500.000        3579.42     
  1812.03        500.000        3579.78     
  1809.52        500.000        3580.14     
  1807.02        500.000        3580.50     
  1804.51        500.000        3580.86     
  1802.01        500.000        3581.22     
  1799.50        500.000        3581.59     
  1796.99        500.000        3581.95     
  1794.49        500.000        3582.31     
  1791.98        500.000        3582.67     
  1789.47        500.000        3583.03     
  1786.97        500.000        3583.39     
  1784.46        500.000        3583.75     
  1781.95        500.000        3584.11     
  1779.45        500.000        3584.47     
  1776.94        500.000        3584.83     
  1774.44        500.000        3585.19     
  1771.93        500.000        3585.55     
  1769.42        500.000        3585.91     
  1766.92        500.000        3586.27     
  1764.41        500.000        3586.63     
  1761.90        500.000        3586.98     
  1759.40        500.000        3587.34     
  1756.89        500.000        3587.70     
  1754.39        500.000        3588.06     
  1751.88        500.000        3588.42     
  1749.37        500.000        3588.78     
  1746.87        500.000        3589.14     
  1744.36        500.000        3589.49     
  1741.85        500.000        3589.85     
  1739.35        500.000        3590.21     
  1736.84        500.000        3590.57     
  1734.34        500.000        3590.93     
  1731.83        500.000        3591.28     
  1729.32        500.000        3591.64     
  1726.82        500.000        3592.00     
  1724.31        500.000        3592.36     
  1721.80        500.000        3592.71     
  1719.30        500.000        3593.07     
  1716.79        500.000        3593.43     
  1714.29        500.000        3593.78     
  1711.78        500.000        3594.14     
  1709.27        500.000        3594.50     
  1706.77        500.000        3594.85     
  1704.26        500.000        3595.21     
  1701.75        500.000        3595.57     
  1699.25        500.000        3595.92     
  1696.74        500.000        3596.28     
  1694.24        500.000        3596.63     
  1691.73        500.000        3596.99     
  1689.22        500.000        3597.35     
  1686.72        500.000        3597.70     
  1684.21        500.000        3598.06     
  1681.70        500.000        3598.41     
  1679.20        500.000        3598.77     
  1676.69        500.000        3599.12     
  1674.19        500.000        3599.48     
  1671.68        500.000        3600.84     
  1669.17        500.000        3610.86     
  1666.67        500.000        3611.13     
  1664.16        500.000        3611.41     
  1661.65        500.000        3611.66     
  1659.15        500.000        3611.93     
  1656.64        500.000        3612.20     
  1654.14        500.000        3612.48     
  1651.63        500.000        3612.74     
  1649.12        500.000        3612.99     
  1646.62        500.000        3613.27     
  1644.11        500.000        3613.55     
  1641.60        500.000        3613.81     
  1639.10        500.000        3614.13     
  1636.59        500.000        3614.30     
  1634.09        500.000        3614.84     
  1631.58        500.000        3614.64     
  1629.07        500.000        3615.17     
  1626.57        500.000        3615.44     
  1624.06        500.000        3615.70     
  1621.55        500.000        3615.97     
  1619.05        500.000        3616.26     
  1616.54        500.000        3616.52     
  1614.04        500.000        3616.80     
  1611.53        500.000        3617.07     
  1609.02        500.000        3552.86     
  1606.52        500.000        3409.95     
  1604.01        500.000        3411.87     
  1601.50        500.000        3415.09     
  1599.00        500.000        3418.93     
  1596.49        500.000        3421.96     
  1593.98        500.000        3421.07     
  1591.48        500.000        3423.47     
  1588.97        500.000        3425.95     
  1586.47        500.000        3427.54     
  1583.96        500.000        3429.97     
  1581.45        500.000        3431.66     
  1578.95        500.000        3434.35     
  1576.44        500.000        3437.18     
  1573.93        500.000        3438.96     
  1571.43        500.000        3442.06     
  1568.92        500.000        3442.78     
  1566.42        500.000        3444.49     
  1563.91        500.000        3446.12     
  1561.40        500.000        3449.44     
  1558.90        500.000        3452.13     
  1556.39        500.000        3454.85     
  1553.88        500.000        3456.54     
  1551.38        500.000        3458.21     
  1548.87        500.000        3461.13     
  1546.37        500.000        3462.50     
  1543.86        500.000        3464.62     
  1541.35        500.000        3467.86     
  1538.85        500.000        3469.03     
  1536.34        500.000        3472.88     
  1533.83        500.000        3473.94     
  1531.33        500.000        3476.12     
  1528.82        500.000        3477.87     
  1526.32        500.000        3481.54     
  1523.81        500.000        3482.50     
  1521.30        500.000        3485.28     
  1518.80        500.000        3487.70     
  1516.29        500.000        3489.74     
  1513.78        500.000        3490.55     
  1511.28        500.000        3493.39     
  1508.77        500.000        3495.87     
  1506.27        500.000        3498.72     
  1503.76        500.000        3497.35     
  1501.25        500.000        3501.59     
  1498.75        500.000        3503.90     
  1496.24        500.000        3508.42     
  1493.73        500.000        3334.84     
  1491.23        500.000        3326.87     
  1488.72        500.000        3328.29     
  1486.22        500.000        3329.38     
  1483.71        500.000        3330.66     
  1481.20        500.000        3329.97     
  1478.70        500.000        3333.61     
  1476.19        500.000        3333.51     
  1473.68        500.000        3334.70     
  1471.18        500.000        3334.60     
  1468.67        500.000        3336.51     
  1466.17        500.000        3337.88     
  1463.66        500.000        3335.55     
  1461.15        500.000        3322.34     
  1458.65        500.000        3318.83     
  1456.14        500.000        3321.42     
  1453.63        500.000        3327.57     
  1451.13        500.000        3324.57     
  1448.62        500.000        3326.02     
  1446.12        500.000        3327.91     
  1443.61        500.000        3316.06     
  1441.10        500.000        3305.75     
  1438.60        500.000        3308.12     
  1436.09        500.000        3310.68     
  1433.58        500.000        3313.96     
  1431.08        500.000        3315.78     
  1428.57        500.000        3318.62     
  1426.07        500.000        3321.04     
  1423.56        500.000        3323.63     
  1421.05        500.000        3326.08     
  1418.55        500.000        3328.84     
  1416.04        500.000        3331.82     
  1413.53        500.000        3334.10     
  1411.03        500.000        3336.51     
  1408.52        500.000        3339.25     
  1406.02        500.000        3342.23     
  1403.51        500.000        3345.03     
  1401.00        500.000        3348.74     
  1398.50        500.000        3350.10     
  1395.99        500.000        3352.93     
  1393.48        500.000        3356.24     
  1390.98        500.000        3358.30     
  1388.47        500.000        3361.09     
  1385.96        500.000        3363.55     
  1383.46        500.000        3352.52     
  1380.95        500.000        3175.61     
  1378.45        500.000        3179.35     
  1375.94        500.000        3181.99     
  1373.43        500.000        3185.17     
  1370.93        500.000        3188.56     
  1368.42        500.000        3191.81     
  1365.91        500.000        3194.51     
  1363.41        500.000        3198.07     
  1360.90        500.000        3226.41     
  1358.40        500.000        3237.52     
  1355.89        500.000        3241.81     
  1353.38        500.000        3246.29     
  1350.88        500.000        3250.73     
  1348.37        500.000        3255.04     
  1345.86        500.000        3260.31     
  1343.36        500.000        3264.02     
  1340.85        500.000        3268.45     
  1338.35        500.000        3272.82     
  1335.84        500.000        3277.30     
  1333.33        500.000        3281.09     
  1330.83        500.000        3285.17     
  1328.32        500.000        3289.15     
  1325.81        500.000        3292.97     
  1323.31        500.000        3296.69     
  1320.80        500.000        3300.52     
  1318.30        500.000        3303.89     
  1315.79        500.000        3307.37     
  1313.28        500.000        3310.23     
  1310.78        500.000        3313.69     
  1308.27        500.000        3316.56     
  1305.76        500.000        3319.33     
  1303.26        500.000        3321.97     
  1300.75        500.000        3324.31     
  1298.25        500.000        3330.76     
  1295.74        500.000        3376.32     
  1293.23        500.000        3382.83     
  1290.73        500.000        3386.13     
  1288.22        500.000        3387.43     
  1285.71        500.000        3390.51     
  1283.21        500.000        3391.24     
  1280.70        500.000        3391.81     
  1278.20        500.000        3392.11     
  1275.69        500.000        3392.02     
  1273.18        500.000        3391.98     
  1270.68        500.000        3391.50     
  1268.17        500.000        3391.09     
  1265.66        500.000        3367.24     
  1263.16        500.000        3401.32     
  1260.65        500.000        2884.23     
  1258.15        500.000        2870.95     
  1255.64        500.000        2873.07     
  1253.13        500.000        2875.05     
  1250.63        500.000        2876.59     
  1248.12        500.000        2877.71     
  1245.61        500.000        2878.69     
  1243.11        500.000        2879.22     
  1240.60        500.000        2879.79     
  1238.10        500.000        2879.96     
  1235.59        500.000        2879.86     
  1233.08        500.000        2870.42     
  1230.58        500.000        2870.71     
  1228.07        500.000        2870.95     
  1225.56        500.000        2871.64     
  1223.06        500.000        2873.77     
  1220.55        500.000        2874.51     
  1218.05        500.000        2875.55     
  1215.54        500.000        2876.17     
  1213.03        500.000        2877.01     
  1210.53        500.000        2876.74     
  1208.02        500.000        2877.22     
  1205.51        500.000        2878.07     
  1203.01        500.000        2876.68     
  1200.50        500.000        2714.96     
  1197.99        500.000        2688.09     
  1195.49        500.000        2685.86     
  1192.98        500.000        2678.54     
  1190.48        500.000        2685.64     
  1187.97        500.000        2666.05     
  1185.46        500.000        2651.08     
  1182.96        500.000        2640.34     
  1180.45        500.000        2640.40     
  1177.94        500.000        2640.46     
  1175.44        500.000        2640.52     
  1172.93        500.000        2640.59     
  1170.43        500.000        2640.67     
  1167.92        500.000        2640.76     
  1165.41        500.000        2640.81     
  1162.91        500.000        2640.90     
  1160.40        500.000        2640.96     
  1157.89        500.000        2641.06     
  1155.39        500.000        2641.11     
  1152.88        500.000        2641.20     
  1150.38        500.000        2641.29     
  1147.87        500.000        2641.36     
  1145.36        500.000        2641.45     
  1142.86        500.000        2641.53     
  1140.35        500.000        2641.61     
  1137.84        500.000        2641.70     
  1135.34        500.000        2641.63     
  1132.83        500.000        2641.87     
  1130.33        500.000        2641.96     
  1127.82        500.000        2642.04     
  1125.31        500.000        2642.13     
  1122.81        500.000        2642.22     
  1120.30        500.000        2642.29     
  1117.79        500.000        2642.39     
  1115.29        500.000        2642.49     
  1112.78        500.000        2642.60     
  1110.28        500.000        2642.70     
  1107.77        500.000        2642.79     
  1105.26        500.000        2642.90     
  1102.76        500.000        2643.01     
  1100.25        500.000        2643.11     
  1097.74        500.000        2643.11     
  1095.24        500.000        2643.20     
  1092.73        500.000        2643.29     
  1090.23        500.000        2643.38     
  1087.72        500.000        2643.48     
  1085.21        500.000        2643.57     
  1082.71        500.000        2643.66     
  1080.20        500.000        2643.96     
  1077.69        500.000        2643.85     
  1075.19        500.000        2643.94     
  1072.68        500.000        2644.03     
  1070.18        500.000        2644.12     
  1067.67        500.000        2644.21     
  1065.16        500.000        2644.31     
  1062.66        500.000        2644.40     
  1060.15        500.000        2644.43     
  1057.64        500.000        2644.59     
  1055.14        500.000        2644.68     
  1052.63        500.000        2644.74     
  1050.13        500.000        2644.87     
  1047.62        500.000        2644.97     
  1045.11        500.000        2645.06     
  1042.61        500.000        2645.09     
  1040.10        500.000        2645.24     
  1037.59        500.000        2645.34     
  1035.09        500.000        2645.43     
  1032.58        500.000        2645.54     
  1030.08        500.000        2645.65     
  1027.57        500.000        2645.71     
  1025.06        500.000        2645.81     
  1022.56        500.000        2645.90     
  1020.05        500.000        2646.00     
  1017.54        500.000        2646.09     
  1015.04        500.000        2646.19     
  1012.53        500.000        2646.28     
  1010.03        500.000        2646.38     
  1007.52        500.000        2646.47     
  1005.01        500.000        2646.56     
  1002.51        500.000        2646.66     
  1000.00        500.000        2646.76     
