|6.6.6
Archiving\03_Data\eqfracLP/QFM_m2/ALH/ALH_6.tab                           
           1
T(K)    
  0.000000000000000E+000
  0.000000000000000E+000
           0
           3
T(K)           P(bar)         rho,kg/m3     
  1525.64        500.000        3838.89     
  1524.32        500.000        3266.85     
  1523.01        500.000        3274.31     
  1521.69        500.000        3268.98     
  1520.37        500.000        3268.26     
  1519.05        500.000        3269.73     
  1517.74        500.000        3270.02     
  1516.42        500.000        3271.22     
  1515.10        500.000        3270.15     
  1513.78        500.000        3272.49     
  1512.47        500.000        3271.48     
  1511.15        500.000        3271.02     
  1509.83        500.000        3272.37     
  1508.51        500.000        3273.10     
  1507.20        500.000        3273.30     
  1505.88        500.000        3276.64     
  1504.56        500.000        3274.15     
  1503.24        500.000        3278.49     
  1501.93        500.000        3283.72     
  1500.61        500.000        3275.99     
  1499.29        500.000        3276.23     
  1497.97        500.000        3276.81     
  1496.66        500.000        3281.65     
  1495.34        500.000        3277.57     
  1494.02        500.000        3268.57     
  1492.71        500.000        3261.14     
  1491.39        500.000        3261.54     
  1490.07        500.000        3262.46     
  1488.75        500.000        3263.73     
  1487.44        500.000        3270.91     
  1486.12        500.000        3265.93     
  1484.80        500.000        3269.73     
  1483.48        500.000        3266.26     
  1482.17        500.000        3267.42     
  1480.85        500.000        3268.05     
  1479.53        500.000        3268.92     
  1478.21        500.000        3269.42     
  1476.90        500.000        3270.31     
  1475.58        500.000        3271.22     
  1474.26        500.000        3271.50     
  1472.94        500.000        3272.44     
  1471.63        500.000        3273.45     
  1470.31        500.000        3292.54     
  1468.99        500.000        3267.73     
  1467.67        500.000        3259.26     
  1466.36        500.000        3260.27     
  1465.04        500.000        3261.52     
  1463.72        500.000        3262.16     
  1462.41        500.000        3263.70     
  1461.09        500.000        3264.74     
  1459.77        500.000        3265.81     
  1458.45        500.000        3267.12     
  1457.14        500.000        3268.43     
  1455.82        500.000        3269.31     
  1454.50        500.000        3270.57     
  1453.18        500.000        3271.62     
  1451.87        500.000        3272.71     
  1450.55        500.000        3274.59     
  1449.23        500.000        3276.71     
  1447.91        500.000        3278.60     
  1446.60        500.000        3279.70     
  1445.28        500.000        3280.62     
  1443.96        500.000        3282.02     
  1442.64        500.000        3282.95     
  1441.33        500.000        3283.84     
  1440.01        500.000        3284.79     
  1438.69        500.000        3285.96     
  1437.37        500.000        3286.88     
  1436.06        500.000        3288.12     
  1434.74        500.000        3289.64     
  1433.42        500.000        3290.21     
  1432.11        500.000        3291.32     
  1430.79        500.000        3292.60     
  1429.47        500.000        3293.61     
  1428.15        500.000        3294.68     
  1426.84        500.000        3295.85     
  1425.52        500.000        3296.92     
  1424.20        500.000        3298.03     
  1422.88        500.000        3299.11     
  1421.57        500.000        3300.40     
  1420.25        500.000        3301.49     
  1418.93        500.000        3302.68     
  1417.61        500.000        3304.28     
  1416.30        500.000        3304.85     
  1414.98        500.000        3306.07     
  1413.66        500.000        3262.85     
  1412.34        500.000        3155.73     
  1411.03        500.000        3127.28     
  1409.71        500.000        3128.81     
  1408.39        500.000        3130.16     
  1407.07        500.000        3132.14     
  1405.76        500.000        3132.82     
  1404.44        500.000        3134.26     
  1403.12        500.000        3135.55     
  1401.81        500.000        3136.91     
  1400.49        500.000        3138.30     
  1399.17        500.000        3139.66     
  1397.85        500.000        3141.10     
  1396.54        500.000        3142.41     
  1395.22        500.000        3143.85     
  1393.90        500.000        3145.34     
  1392.58        500.000        3146.67     
  1391.27        500.000        3147.92     
  1389.95        500.000        3149.51     
  1388.63        500.000        3150.83     
  1387.31        500.000        3152.18     
  1386.00        500.000        3153.46     
  1384.68        500.000        3155.00     
  1383.36        500.000        3156.28     
  1382.04        500.000        3157.78     
  1380.73        500.000        3159.37     
  1379.41        500.000        3160.82     
  1378.09        500.000        3161.91     
  1376.77        500.000        3163.32     
  1375.46        500.000        3164.87     
  1374.14        500.000        3166.07     
  1372.82        500.000        3167.61     
  1371.50        500.000        3168.94     
  1370.19        500.000        3170.55     
  1368.87        500.000        3171.93     
  1367.55        500.000        3173.50     
  1366.24        500.000        3174.76     
  1364.92        500.000        3176.26     
  1363.60        500.000        3177.71     
  1362.28        500.000        3178.98     
  1360.97        500.000        3180.47     
  1359.65        500.000        3181.85     
  1358.33        500.000        3183.21     
  1357.01        500.000        3184.82     
  1355.70        500.000        3186.19     
  1354.38        500.000        3187.58     
  1353.06        500.000        3189.04     
  1351.74        500.000        3190.58     
  1350.43        500.000        3192.08     
  1349.11        500.000        3193.41     
  1347.79        500.000        3195.10     
  1346.47        500.000        3196.20     
  1345.16        500.000        3197.66     
  1343.84        500.000        3198.96     
  1342.52        500.000        3200.76     
  1341.20        500.000        3201.94     
  1339.89        500.000        3203.11     
  1338.57        500.000        3204.92     
  1337.25        500.000        3206.18     
  1335.94        500.000        3207.83     
  1334.62        500.000        3209.03     
  1333.30        500.000        3210.47     
  1331.98        500.000        3212.00     
  1330.67        500.000        3213.79     
  1329.35        500.000        3214.90     
  1328.03        500.000        3216.42     
  1326.71        500.000        3217.78     
  1325.40        500.000        3219.25     
  1324.08        500.000        3220.55     
  1322.76        500.000        3221.67     
  1321.44        500.000        3223.83     
  1320.13        500.000        3224.78     
  1318.81        500.000        3226.11     
  1317.49        500.000        3227.48     
  1316.17        500.000        3228.86     
  1314.86        500.000        3253.50     
  1313.54        500.000        3267.85     
  1312.22        500.000        3268.54     
  1310.90        500.000        3270.23     
  1309.59        500.000        3271.14     
  1308.27        500.000        3272.18     
  1306.95        500.000        3273.10     
  1305.64        500.000        3274.09     
  1304.32        500.000        3274.80     
  1303.00        500.000        3275.99     
  1301.68        500.000        3273.81     
  1300.37        500.000        3306.02     
  1299.05        500.000        3336.49     
  1297.73        500.000        3337.14     
  1296.41        500.000        3337.93     
  1295.10        500.000        3338.47     
  1293.78        500.000        3338.80     
  1292.46        500.000        3339.90     
  1291.14        500.000        3340.63     
  1289.83        500.000        3341.13     
  1288.51        500.000        3341.78     
  1287.19        500.000        3342.38     
  1285.87        500.000        3342.70     
  1284.56        500.000        3343.15     
  1283.24        500.000        3343.42     
  1281.92        500.000        3343.53     
  1280.60        500.000        3344.04     
  1279.29        500.000        3345.16     
  1277.97        500.000        3344.97     
  1276.65        500.000        2886.22     
  1275.34        500.000        2832.37     
  1274.02        500.000        2835.21     
  1272.70        500.000        2837.71     
  1271.38        500.000        2839.30     
  1270.07        500.000        2841.50     
  1268.75        500.000        2843.78     
  1267.43        500.000        2845.97     
  1266.11        500.000        2848.01     
  1264.80        500.000        2849.96     
  1263.48        500.000        2851.80     
  1262.16        500.000        2853.33     
  1260.84        500.000        2854.35     
  1259.53        500.000        2856.98     
  1258.21        500.000        2858.36     
  1256.89        500.000        2859.22     
  1255.57        500.000        2860.47     
  1254.26        500.000        2861.85     
  1252.94        500.000        2863.23     
  1251.62        500.000        2864.12     
  1250.30        500.000        2864.47     
  1248.99        500.000        2865.45     
  1247.67        500.000        2866.61     
  1246.35        500.000        2867.40     
  1245.04        500.000        2867.95     
  1243.72        500.000        2868.37     
  1242.40        500.000        2868.94     
  1241.08        500.000        2869.59     
  1239.77        500.000        2870.05     
  1238.45        500.000        2870.75     
  1237.13        500.000        2870.52     
  1235.81        500.000        2870.99     
  1234.50        500.000        2871.31     
  1233.18        500.000        2871.12     
  1231.86        500.000        2871.17     
  1230.54        500.000        2871.40     
  1229.23        500.000        2870.87     
  1227.91        500.000        2871.04     
  1226.59        500.000        2855.43     
  1225.27        500.000        2834.52     
  1223.96        500.000        3117.59     
  1222.64        500.000        2867.17     
  1221.32        500.000        3741.94     
  1220.00        500.000        2835.77     
  1218.69        500.000        2826.65     
  1217.37        500.000        3496.73     
  1216.05        500.000        2645.08     
  1214.74        500.000        2710.31     
  1213.42        500.000        2920.73     
  1212.10        500.000        2864.22     
  1210.78        500.000        2796.37     
  1209.47        500.000        2871.51     
  1208.15        500.000        2854.11     
  1206.83        500.000        2434.19     
  1205.51        500.000        2434.28     
  1204.20        500.000        2681.34     
  1202.88        500.000        2695.78     
  1201.56        500.000        2427.98     
  1200.24        500.000        2428.07     
  1198.93        500.000        2682.69     
  1197.61        500.000        2683.51     
  1196.29        500.000        2675.03     
  1194.97        500.000        2677.53     
  1193.66        500.000        2672.05     
  1192.34        500.000        2662.03     
  1191.02        500.000        2416.00     
  1189.70        500.000        2416.09     
  1188.39        500.000        2640.36     
  1187.07        500.000        2640.43     
  1185.75        500.000        2640.48     
  1184.44        500.000        2640.55     
  1183.12        500.000        2640.60     
  1181.80        500.000        2640.66     
  1180.48        500.000        2640.72     
  1179.17        500.000        2640.78     
  1177.85        500.000        2640.84     
  1176.53        500.000        2640.90     
  1175.21        500.000        2640.96     
  1173.90        500.000        2641.01     
  1172.58        500.000        2641.07     
  1171.26        500.000        2641.13     
  1169.94        500.000        2641.19     
  1168.63        500.000        2641.25     
  1167.31        500.000        2641.31     
  1165.99        500.000        2641.36     
  1164.67        500.000        2641.42     
  1163.36        500.000        2641.48     
  1162.04        500.000        2641.53     
  1160.72        500.000        2641.60     
  1159.40        500.000        2641.66     
  1158.09        500.000        2641.71     
  1156.77        500.000        2641.76     
  1155.45        500.000        2641.79     
  1154.14        500.000        2641.85     
  1152.82        500.000        2641.91     
  1151.50        500.000        2641.98     
  1150.18        500.000        2642.03     
  1148.87        500.000        2642.09     
  1147.55        500.000        2642.15     
  1146.23        500.000        2642.21     
  1144.91        500.000        2642.27     
  1143.60        500.000        2642.35     
  1142.28        500.000        2642.42     
  1140.96        500.000        2642.47     
  1139.64        500.000        2642.53     
  1138.33        500.000        2642.60     
  1137.01        500.000        2642.63     
  1135.69        500.000        2639.82     
  1134.37        500.000        2639.72     
  1133.06        500.000        2639.55     
  1131.74        500.000        2639.64     
  1130.42        500.000        2639.61     
  1129.10        500.000        2639.59     
  1127.79        500.000        2639.58     
  1126.47        500.000        2639.58     
  1125.15        500.000        2639.58     
  1123.83        500.000        2639.58     
  1122.52        500.000        2639.59     
  1121.20        500.000        2639.60     
  1119.88        500.000        2639.62     
  1118.57        500.000        2639.63     
  1117.25        500.000        2639.65     
  1115.93        500.000        2639.66     
  1114.61        500.000        2639.69     
  1113.30        500.000        2639.71     
  1111.98        500.000        2639.73     
  1110.66        500.000        2639.76     
  1109.34        500.000        2639.79     
  1108.03        500.000        2639.82     
  1106.71        500.000        2638.71     
  1105.39        500.000        2639.88     
  1104.07        500.000        2639.71     
  1102.76        500.000        2638.89     
  1101.44        500.000        2639.97     
  1100.12        500.000        2640.00     
  1098.80        500.000        2640.04     
  1097.49        500.000        2640.07     
  1096.17        500.000        2640.11     
  1094.85        500.000        2640.14     
  1093.53        500.000        2640.18     
  1092.22        500.000        2639.33     
  1090.90        500.000        2640.25     
  1089.58        500.000        2640.29     
  1088.27        500.000        2639.50     
  1086.95        500.000        2640.36     
  1085.63        500.000        2640.40     
  1084.31        500.000        2640.43     
  1083.00        500.000        2640.40     
  1081.68        500.000        2640.52     
  1080.36        500.000        2640.56     
  1079.04        500.000        2640.57     
  1077.73        500.000        2640.65     
  1076.41        500.000        2640.61     
  1075.09        500.000        2640.72     
  1073.77        500.000        2640.76     
  1072.46        500.000        2640.80     
  1071.14        500.000        2640.79     
  1069.82        500.000        2640.84     
  1068.50        500.000        2640.88     
  1067.19        500.000        2640.93     
  1065.87        500.000        2640.97     
  1064.55        500.000        2641.02     
  1063.23        500.000        2641.04     
  1061.92        500.000        2641.09     
  1060.60        500.000        2641.14     
  1059.28        500.000        2641.19     
  1057.97        500.000        2641.25     
  1056.65        500.000        2641.30     
  1055.33        500.000        2641.33     
  1054.01        500.000        2641.38     
  1052.70        500.000        2641.44     
  1051.38        500.000        2641.49     
  1050.06        500.000        2641.13     
  1048.74        500.000        2641.18     
  1047.43        500.000        2641.24     
  1046.11        500.000        2641.29     
  1044.79        500.000        2641.35     
  1043.47        500.000        2641.41     
  1042.16        500.000        2641.46     
  1040.84        500.000        2641.52     
  1039.52        500.000        2641.58     
  1038.20        500.000        2641.63     
  1036.89        500.000        2641.69     
  1035.57        500.000        2641.75     
  1034.25        500.000        2641.80     
  1032.93        500.000        2641.86     
  1031.62        500.000        2641.92     
  1030.30        500.000        2641.97     
  1028.98        500.000        2642.03     
  1027.67        500.000        2642.09     
  1026.35        500.000        2642.14     
  1025.03        500.000        2642.20     
  1023.71        500.000        2642.25     
  1022.40        500.000        2642.31     
  1021.08        500.000        2642.37     
  1019.76        500.000        2642.42     
  1018.44        500.000        2642.48     
  1017.13        500.000        2642.54     
  1015.81        500.000        2642.59     
  1014.49        500.000        2642.65     
  1013.17        500.000        2642.70     
  1011.86        500.000        2642.76     
  1010.54        500.000        2642.82     
  1009.22        500.000        2642.87     
  1007.90        500.000        2642.93     
  1006.59        500.000        2642.99     
  1005.27        500.000        2643.04     
  1003.95        500.000        2643.10     
  1002.63        500.000        2643.15     
  1001.32        500.000        2643.21     
  1000.00        500.000        2643.27     
