|6.6.6
Archiving\03_Data\eqfrac/QFM_m5/WD94/WD94_6.tab                           
           1
T(K)    
  0.000000000000000E+000
  0.000000000000000E+000
           0
           3
T(K)           P(bar)         rho,kg/m3     
  1612.18        2500.00        3323.30     
  1610.65        2500.00        3233.96     
  1609.11        2500.00        3230.11     
  1607.58        2500.00        3230.59     
  1606.04        2500.00        3230.99     
  1604.51        2500.00        3231.50     
  1602.97        2500.00        3231.82     
  1601.44        2500.00        3232.36     
  1599.91        2500.00        3232.77     
  1598.37        2500.00        3232.97     
  1596.84        2500.00        3233.36     
  1595.30        2500.00        3234.08     
  1593.77        2500.00        3234.75     
  1592.23        2500.00        3355.55     
  1590.70        2500.00        3232.56     
  1589.17        2500.00        3235.95     
  1587.63        2500.00        3235.27     
  1586.10        2500.00        3236.18     
  1584.56        2500.00        3236.49     
  1583.03        2500.00        3237.29     
  1581.49        2500.00        3242.72     
  1579.96        2500.00        3232.01     
  1578.43        2500.00        3240.22     
  1576.89        2500.00        3237.35     
  1575.36        2500.00        3239.36     
  1573.82        2500.00        3240.47     
  1572.29        2500.00        3240.01     
  1570.75        2500.00        3240.56     
  1569.22        2500.00        3241.42     
  1567.69        2500.00        3240.95     
  1566.15        2500.00        3241.96     
  1564.62        2500.00        3242.38     
  1563.08        2500.00        3242.35     
  1561.55        2500.00        3242.66     
  1560.01        2500.00        3243.16     
  1558.48        2500.00        3243.89     
  1556.95        2500.00        3244.04     
  1555.41        2500.00        3244.23     
  1553.88        2500.00        3245.67     
  1552.34        2500.00        3245.27     
  1550.81        2500.00        3245.56     
  1549.27        2500.00        3246.40     
  1547.74        2500.00        3245.89     
  1546.21        2500.00        3247.04     
  1544.67        2500.00        3247.23     
  1543.14        2500.00        3247.70     
  1541.60        2500.00        3247.42     
  1540.07        2500.00        3247.96     
  1538.53        2500.00        3248.45     
  1537.00        2500.00        3247.23     
  1535.47        2500.00        3248.97     
  1533.93        2500.00        3249.99     
  1532.40        2500.00        3249.72     
  1530.86        2500.00        3250.57     
  1529.33        2500.00        3250.78     
  1527.79        2500.00        3251.76     
  1526.26        2500.00        3251.57     
  1524.73        2500.00        3251.81     
  1523.19        2500.00        3252.17     
  1521.66        2500.00        3252.61     
  1520.12        2500.00        3252.43     
  1518.59        2500.00        3253.34     
  1517.05        2500.00        3251.27     
  1515.52        2500.00        3255.56     
  1513.99        2500.00        3247.15     
  1512.45        2500.00        3233.49     
  1510.92        2500.00        3234.11     
  1509.38        2500.00        3234.89     
  1507.85        2500.00        3236.03     
  1506.31        2500.00        3236.37     
  1504.78        2500.00        3237.10     
  1503.25        2500.00        3237.93     
  1501.71        2500.00        3238.67     
  1500.18        2500.00        3239.07     
  1498.64        2500.00        3239.30     
  1497.11        2500.00        3241.17     
  1495.57        2500.00        3241.69     
  1494.04        2500.00        3242.77     
  1492.51        2500.00        3243.37     
  1490.97        2500.00        3244.13     
  1489.44        2500.00        3244.69     
  1487.90        2500.00        3245.90     
  1486.37        2500.00        3244.43     
  1484.83        2500.00        3236.66     
  1483.30        2500.00        3237.63     
  1481.77        2500.00        3238.37     
  1480.23        2500.00        3232.96     
  1478.70        2500.00        3245.32     
  1477.16        2500.00        3234.88     
  1475.63        2500.00        3247.44     
  1474.09        2500.00        3236.34     
  1472.56        2500.00        3249.81     
  1471.03        2500.00        3237.81     
  1469.49        2500.00        3251.88     
  1467.96        2500.00        3247.52     
  1466.42        2500.00        3248.62     
  1464.89        2500.00        3249.52     
  1463.35        2500.00        3250.53     
  1461.82        2500.00        3251.61     
  1460.29        2500.00        3252.70     
  1458.75        2500.00        3253.70     
  1457.22        2500.00        3254.76     
  1455.68        2500.00        3255.42     
  1454.15        2500.00        3256.65     
  1452.61        2500.00        3276.80     
  1451.08        2500.00        3318.40     
  1449.55        2500.00        3277.49     
  1448.01        2500.00        3295.59     
  1446.48        2500.00        3295.99     
  1444.94        2500.00        3320.20     
  1443.41        2500.00        3279.28     
  1441.87        2500.00        3297.44     
  1440.34        2500.00        3150.83     
  1438.81        2500.00        3144.98     
  1437.27        2500.00        3144.99     
  1435.74        2500.00        3144.93     
  1434.20        2500.00        3144.91     
  1432.67        2500.00        3144.92     
  1431.13        2500.00        3144.88     
  1429.60        2500.00        3144.83     
  1428.07        2500.00        3144.86     
  1426.53        2500.00        3164.73     
  1425.00        2500.00        3133.95     
  1423.46        2500.00        3144.81     
  1421.93        2500.00        3144.93     
  1420.39        2500.00        3165.50     
  1418.86        2500.00        3133.28     
  1417.33        2500.00        3144.76     
  1415.79        2500.00        3144.79     
  1414.26        2500.00        3121.91     
  1412.72        2500.00        3165.57     
  1411.19        2500.00        3131.00     
  1409.65        2500.00        3144.82     
  1408.12        2500.00        3144.83     
  1406.59        2500.00        3144.79     
  1405.05        2500.00        3144.81     
  1403.52        2500.00        3144.76     
  1401.98        2500.00        3144.77     
  1400.45        2500.00        3144.75     
  1398.91        2500.00        3144.73     
  1397.38        2500.00        3144.80     
  1395.85        2500.00        3144.74     
  1394.31        2500.00        3169.57     
  1392.78        2500.00        3130.20     
  1391.24        2500.00        3144.67     
  1389.71        2500.00        3144.67     
  1388.17        2500.00        3144.67     
  1386.64        2500.00        3144.63     
  1385.11        2500.00        3144.61     
  1383.57        2500.00        3144.57     
  1382.04        2500.00        3144.50     
  1380.50        2500.00        3144.53     
  1378.97        2500.00        3144.46     
  1377.43        2500.00        3144.45     
  1375.90        2500.00        3144.43     
  1374.37        2500.00        3144.20     
  1372.83        2500.00        3144.35     
  1371.30        2500.00        3144.35     
  1369.76        2500.00        3144.35     
  1368.23        2500.00        3144.17     
  1366.69        2500.00        3144.17     
  1365.16        2500.00        3144.08     
  1363.63        2500.00        3144.00     
  1362.09        2500.00        3143.98     
  1360.56        2500.00        3143.93     
  1359.02        2500.00        3143.98     
  1357.49        2500.00        3143.82     
  1355.95        2500.00        3143.73     
  1354.42        2500.00        3143.64     
  1352.89        2500.00        3143.61     
  1351.35        2500.00        3143.49     
  1349.82        2500.00        3143.46     
  1348.28        2500.00        3143.36     
  1346.75        2500.00        3143.20     
  1345.21        2500.00        3143.16     
  1343.68        2500.00        3143.13     
  1342.15        2500.00        3142.97     
  1340.61        2500.00        3142.84     
  1339.08        2500.00        3142.77     
  1337.54        2500.00        3142.66     
  1336.01        2500.00        3142.53     
  1334.47        2500.00        3142.34     
  1332.94        2500.00        3142.29     
  1331.41        2500.00        3142.08     
  1329.87        2500.00        3142.04     
  1328.34        2500.00        3142.07     
  1326.80        2500.00        3141.85     
  1325.27        2500.00        3141.72     
  1323.73        2500.00        3141.37     
  1322.20        2500.00        3141.37     
  1320.67        2500.00        2796.56     
  1319.13        2500.00        2750.83     
  1317.60        2500.00        2745.58     
  1316.06        2500.00        2744.40     
  1314.53        2500.00        2743.24     
  1312.99        2500.00        2742.09     
  1311.46        2500.00        2740.98     
  1309.93        2500.00        2739.87     
  1308.39        2500.00        2738.88     
  1306.86        2500.00        2737.83     
  1305.32        2500.00        2735.81     
  1303.79        2500.00        2735.56     
  1302.25        2500.00        2735.42     
  1300.72        2500.00        2736.67     
  1299.19        2500.00        2735.07     
  1297.65        2500.00        2735.03     
  1296.12        2500.00        2734.17     
  1294.58        2500.00        2767.00     
  1293.05        2500.00        2749.10     
  1291.51        2500.00        2690.25     
  1289.98        2500.00        2734.94     
  1288.45        2500.00        2734.74     
  1286.91        2500.00        2745.28     
  1285.38        2500.00        2704.29     
  1283.84        2500.00        2742.17     
  1282.31        2500.00        2718.04     
  1280.77        2500.00        2763.09     
  1279.24        2500.00        2640.96     
  1277.71        2500.00        2742.43     
  1276.17        2500.00        2720.26     
  1274.64        2500.00        2738.27     
  1273.10        2500.00        2736.37     
  1271.57        2500.00        2724.82     
  1270.03        2500.00        2759.66     
  1268.50        2500.00        2771.36     
  1266.97        2500.00        2723.93     
  1265.43        2500.00        2732.59     
  1263.90        2500.00        2728.41     
  1262.36        2500.00        2744.96     
  1260.83        2500.00        3255.45     
  1259.29        2500.00        2736.55     
  1257.76        2500.00        2751.26     
  1256.23        2500.00        2707.63     
  1254.69        2500.00        2701.25     
  1253.16        2500.00        2685.25     
  1251.62        2500.00        2685.41     
  1250.09        2500.00        2685.51     
  1248.55        2500.00        2685.68     
  1247.02        2500.00        2685.85     
  1245.49        2500.00        2686.01     
  1243.95        2500.00        2686.14     
  1242.42        2500.00        2686.28     
  1240.88        2500.00        2686.41     
  1239.35        2500.00        2686.55     
  1237.81        2500.00        2686.68     
  1236.28        2500.00        2686.81     
  1234.75        2500.00        2686.95     
  1233.21        2500.00        2687.08     
  1231.68        2500.00        2687.21     
  1230.14        2500.00        2687.35     
  1228.61        2500.00        2687.48     
  1227.07        2500.00        2687.62     
  1225.54        2500.00        2687.69     
  1224.01        2500.00        2687.93     
  1222.47        2500.00        2688.02     
  1220.94        2500.00        2688.15     
  1219.40        2500.00        2687.68     
  1217.87        2500.00        2687.89     
  1216.33        2500.00        2688.09     
  1214.80        2500.00        2688.10     
  1213.27        2500.00        2688.31     
  1211.73        2500.00        2688.52     
  1210.20        2500.00        2688.72     
  1208.66        2500.00        2688.75     
  1207.13        2500.00        2688.96     
  1205.59        2500.00        2689.45     
  1204.06        2500.00        2689.58     
  1202.53        2500.00        2689.71     
  1200.99        2500.00        2689.83     
  1199.46        2500.00        2689.96     
  1197.92        2500.00        2690.09     
  1196.39        2500.00        2690.21     
  1194.85        2500.00        2690.34     
  1193.32        2500.00        2690.47     
  1191.79        2500.00        2690.60     
  1190.25        2500.00        2690.72     
  1188.72        2500.00        2690.85     
  1187.18        2500.00        2690.98     
  1185.65        2500.00        2691.10     
  1184.11        2500.00        2691.23     
  1182.58        2500.00        2691.36     
  1181.05        2500.00        2691.50     
  1179.51        2500.00        2691.63     
  1177.98        2500.00        2691.76     
  1176.44        2500.00        2691.89     
  1174.91        2500.00        2692.03     
  1173.37        2500.00        2692.16     
  1171.84        2500.00        2692.30     
  1170.31        2500.00        2692.45     
  1168.77        2500.00        2692.94     
  1167.24        2500.00        2692.80     
  1165.70        2500.00        2692.94     
  1164.17        2500.00        2693.12     
  1162.63        2500.00        2693.31     
  1161.10        2500.00        2693.53     
  1159.57        2500.00        2693.71     
  1158.03        2500.00        2693.83     
  1156.50        2500.00        2694.04     
  1154.96        2500.00        2694.38     
  1153.43        2500.00        2694.32     
  1151.89        2500.00        2694.58     
  1150.36        2500.00        2694.75     
  1148.83        2500.00        2694.86     
  1147.29        2500.00        2695.06     
  1145.76        2500.00        2695.26     
  1144.22        2500.00        2695.63     
  1142.69        2500.00        2695.66     
  1141.15        2500.00        2695.84     
  1139.62        2500.00        2696.09     
  1138.09        2500.00        2696.26     
  1136.55        2500.00        2696.36     
  1135.02        2500.00        2696.57     
  1133.48        2500.00        2696.77     
  1131.95        2500.00        2697.11     
  1130.41        2500.00        2697.26     
  1128.88        2500.00        2697.43     
  1127.35        2500.00        2697.80     
  1125.81        2500.00        2697.90     
  1124.28        2500.00        2698.08     
  1122.74        2500.00        2698.27     
  1121.21        2500.00        2698.45     
  1119.67        2500.00        2698.45     
  1118.14        2500.00        2698.78     
  1116.61        2500.00        2698.97     
  1115.07        2500.00        2699.17     
  1113.54        2500.00        2699.37     
  1112.00        2500.00        2699.57     
  1110.47        2500.00        2699.77     
  1108.93        2500.00        2699.97     
  1107.40        2500.00        2700.08     
  1105.87        2500.00        2700.24     
  1104.33        2500.00        2700.24     
  1102.80        2500.00        2700.35     
  1101.26        2500.00        2700.61     
  1099.73        2500.00        2700.74     
  1098.19        2500.00        2700.50     
  1096.66        2500.00        2700.95     
  1095.13        2500.00        2701.06     
  1093.59        2500.00        2701.26     
  1092.06        2500.00        2701.31     
  1090.52        2500.00        2701.31     
  1088.99        2500.00        2701.80     
  1087.45        2500.00        2701.69     
  1085.92        2500.00        2701.81     
  1084.39        2500.00        2701.92     
  1082.85        2500.00        2702.04     
  1081.32        2500.00        2702.17     
  1079.78        2500.00        2702.31     
  1078.25        2500.00        2702.43     
  1076.71        2500.00        2702.61     
  1075.18        2500.00        2702.62     
  1073.65        2500.00        2702.89     
  1072.11        2500.00        2703.02     
  1070.58        2500.00        2703.14     
  1069.04        2500.00        2703.28     
  1067.51        2500.00        2703.40     
  1065.97        2500.00        2703.51     
  1064.44        2500.00        2703.75     
  1062.91        2500.00        2703.79     
  1061.37        2500.00        2703.82     
  1059.84        2500.00        2704.04     
  1058.30        2500.00        2704.17     
  1056.77        2500.00        2704.13     
  1055.23        2500.00        2704.40     
  1053.70        2500.00        2704.48     
  1052.17        2500.00        2704.61     
  1050.63        2500.00        2704.85     
  1049.10        2500.00        2704.98     
  1047.56        2500.00        2705.12     
  1046.03        2500.00        2705.26     
  1044.49        2500.00        2705.39     
  1042.96        2500.00        2705.51     
  1041.43        2500.00        2705.49     
  1039.89        2500.00        2705.64     
  1038.36        2500.00        2705.79     
  1036.82        2500.00        2706.04     
  1035.29        2500.00        2706.07     
  1033.75        2500.00        2706.22     
  1032.22        2500.00        2706.46     
  1030.69        2500.00        2706.57     
  1029.15        2500.00        2706.61     
  1027.62        2500.00        2706.84     
  1026.08        2500.00        2706.97     
  1024.55        2500.00        2707.13     
  1023.01        2500.00        2707.24     
  1021.48        2500.00        2707.34     
  1019.95        2500.00        2707.54     
  1018.41        2500.00        2707.68     
  1016.88        2500.00        2707.78     
  1015.34        2500.00        2707.92     
  1013.81        2500.00        2708.07     
  1012.27        2500.00        2708.21     
  1010.74        2500.00        2708.47     
  1009.21        2500.00        2708.59     
  1007.67        2500.00        2708.69     
  1006.14        2500.00        2708.72     
  1004.60        2500.00        2708.85     
  1003.07        2500.00        2709.00     
  1001.53        2500.00        2709.14     
  1000.00        2500.00        2709.27     
