|6.6.6
Archiving\03_Data\Deq/QFM_m4.25/YM20/YM20_6.tab                         
           1
T(K)    
  0.000000000000000E+000
  0.000000000000000E+000
           0
           3
T(K)           P(bar)         rho,kg/m3     
  2000.00        2500.00        8112.42     
  1996.79        2500.00        8114.24     
  1993.59        2500.00        8116.06     
  1990.38        2500.00        8117.88     
  1987.18        2500.00        8119.70     
  1983.97        2500.00        8121.52     
  1980.77        2500.00        8123.33     
  1977.56        2500.00        8125.14     
  1974.36        2500.00        8126.96     
  1971.15        2500.00        8128.77     
  1967.95        2500.00        8130.57     
  1964.74        2500.00        8132.38     
  1961.54        2500.00        8134.19     
  1958.33        2500.00        8135.99     
  1955.13        2500.00        8137.79     
  1951.92        2500.00        8139.60     
  1948.72        2500.00        8141.40     
  1945.51        2500.00        8143.19     
  1942.31        2500.00        8144.99     
  1939.10        2500.00        8146.79     
  1935.90        2500.00        8148.58     
  1932.69        2500.00        8150.37     
  1929.49        2500.00        8152.16     
  1926.28        2500.00        3650.59     
  1923.08        2500.00        3228.60     
  1919.87        2500.00        3197.27     
  1916.67        2500.00        3185.63     
  1913.46        2500.00        3179.71     
  1910.26        2500.00        3176.23     
  1907.05        2500.00        3175.52     
  1903.85        2500.00        3175.12     
  1900.64        2500.00        3176.14     
  1897.44        2500.00        3177.85     
  1894.23        2500.00        3181.58     
  1891.03        2500.00        3184.77     
  1887.82        2500.00        3187.54     
  1884.62        2500.00        3189.99     
  1881.41        2500.00        3192.17     
  1878.21        2500.00        3194.15     
  1875.00        2500.00        3195.94     
  1871.79        2500.00        3197.59     
  1868.59        2500.00        3200.25     
  1865.38        2500.00        3202.70     
  1862.18        2500.00        3204.98     
  1858.97        2500.00        3207.10     
  1855.77        2500.00        3209.10     
  1852.56        2500.00        3210.97     
  1849.36        2500.00        3212.74     
  1846.15        2500.00        3214.41     
  1842.95        2500.00        3216.46     
  1839.74        2500.00        3218.41     
  1836.54        2500.00        3220.50     
  1833.33        2500.00        3222.53     
  1830.13        2500.00        3224.58     
  1826.92        2500.00        3226.55     
  1823.72        2500.00        3228.43     
  1820.51        2500.00        3230.25     
  1817.31        2500.00        3232.35     
  1814.10        2500.00        3234.38     
  1810.90        2500.00        3236.33     
  1807.69        2500.00        3238.22     
  1804.49        2500.00        3240.05     
  1801.28        2500.00        3241.81     
  1798.08        2500.00        3243.53     
  1794.87        2500.00        3245.19     
  1791.67        2500.00        3247.09     
  1788.46        2500.00        3248.94     
  1785.26        2500.00        3250.74     
  1782.05        2500.00        3252.50     
  1778.85        2500.00        3254.20     
  1775.64        2500.00        3255.86     
  1772.44        2500.00        3257.48     
  1769.23        2500.00        3259.06     
  1766.03        2500.00        3260.78     
  1762.82        2500.00        3262.46     
  1759.62        2500.00        3264.10     
  1756.41        2500.00        3265.70     
  1753.21        2500.00        3267.27     
  1750.00        2500.00        3268.81     
  1746.79        2500.00        3270.31     
  1743.59        2500.00        3271.79     
  1740.38        2500.00        3273.31     
  1737.18        2500.00        3274.81     
  1733.97        2500.00        3276.28     
  1730.77        2500.00        3277.72     
  1727.56        2500.00        3279.14     
  1724.36        2500.00        3280.54     
  1721.15        2500.00        3281.91     
  1717.95        2500.00        3283.26     
  1714.74        2500.00        3284.58     
  1711.54        2500.00        3285.89     
  1708.33        2500.00        3287.17     
  1705.13        2500.00        3288.44     
  1701.92        2500.00        3289.69     
  1698.72        2500.00        3290.92     
  1695.51        2500.00        3292.14     
  1692.31        2500.00        3293.34     
  1689.10        2500.00        3294.49     
  1685.90        2500.00        3295.63     
  1682.69        2500.00        3296.76     
  1679.49        2500.00        3297.87     
  1676.28        2500.00        3298.97     
  1673.08        2500.00        3300.06     
  1669.87        2500.00        3301.13     
  1666.67        2500.00        3302.20     
  1663.46        2500.00        3303.21     
  1660.26        2500.00        3304.20     
  1657.05        2500.00        3305.22     
  1653.85        2500.00        3303.86     
  1650.64        2500.00        3302.77     
  1647.44        2500.00        3301.74     
  1644.23        2500.00        3300.79     
  1641.03        2500.00        3299.89     
  1637.82        2500.00        3299.42     
  1634.62        2500.00        3298.99     
  1631.41        2500.00        3298.58     
  1628.21        2500.00        3298.20     
  1625.00        2500.00        3297.85     
  1621.79        2500.00        3297.52     
  1618.59        2500.00        3297.21     
  1615.38        2500.00        3296.93     
  1612.18        2500.00        3296.91     
  1608.97        2500.00        3296.90     
  1605.77        2500.00        3296.91     
  1602.56        2500.00        3296.92     
  1599.36        2500.00        3296.94     
  1596.15        2500.00        3296.97     
  1592.95        2500.00        3297.01     
  1589.74        2500.00        3297.06     
  1586.54        2500.00        3297.22     
  1583.33        2500.00        3297.39     
  1580.13        2500.00        3297.57     
  1576.92        2500.00        3297.75     
  1573.72        2500.00        3297.93     
  1570.51        2500.00        3298.12     
  1567.31        2500.00        3298.31     
  1564.10        2500.00        3298.51     
  1560.90        2500.00        3298.76     
  1557.69        2500.00        3299.01     
  1554.49        2500.00        3299.27     
  1551.28        2500.00        3299.53     
  1548.08        2500.00        3299.79     
  1544.87        2500.00        3300.05     
  1541.67        2500.00        3300.32     
  1538.46        2500.00        3300.59     
  1535.26        2500.00        3300.88     
  1532.05        2500.00        3301.17     
  1528.85        2500.00        3301.47     
  1525.64        2500.00        3301.77     
  1522.44        2500.00        3302.07     
  1519.23        2500.00        3302.37     
  1516.03        2500.00        3302.68     
  1512.82        2500.00        3302.99     
  1509.62        2500.00        3303.30     
  1506.41        2500.00        3303.62     
  1503.21        2500.00        3303.99     
  1500.00        2500.00        3304.42     
  1496.79        2500.00        3304.89     
  1493.59        2500.00        3305.35     
  1490.38        2500.00        3305.81     
  1487.18        2500.00        3306.27     
  1483.97        2500.00        3306.77     
  1480.77        2500.00        3307.25     
  1477.56        2500.00        3307.70     
  1474.36        2500.00        3308.22     
  1471.15        2500.00        3308.66     
  1467.95        2500.00        3309.10     
  1464.74        2500.00        3309.54     
  1461.54        2500.00        3310.13     
  1458.33        2500.00        3310.57     
  1455.13        2500.00        3311.08     
  1451.92        2500.00        3311.55     
  1448.72        2500.00        3310.97     
  1445.51        2500.00        3311.40     
  1442.31        2500.00        3311.84     
  1439.10        2500.00        3312.28     
  1435.90        2500.00        3308.75     
  1432.69        2500.00        3309.18     
  1429.49        2500.00        3309.62     
  1426.28        2500.00        3310.05     
  1423.08        2500.00        3310.49     
  1419.87        2500.00        3310.92     
  1416.67        2500.00        3311.35     
  1413.46        2500.00        3311.79     
  1410.26        2500.00        3306.83     
  1407.05        2500.00        3307.26     
  1403.85        2500.00        3307.69     
  1400.64        2500.00        3308.12     
  1397.44        2500.00        3308.55     
  1394.23        2500.00        3308.98     
  1391.03        2500.00        3309.41     
  1387.82        2500.00        3309.84     
  1384.62        2500.00        3306.34     
  1381.41        2500.00        3306.76     
  1378.21        2500.00        3307.19     
  1375.00        2500.00        3307.61     
  1371.79        2500.00        3308.04     
  1368.59        2500.00        3308.46     
  1365.38        2500.00        3308.89     
  1362.18        2500.00        3309.31     
  1358.97        2500.00        3306.49     
  1355.77        2500.00        3306.91     
  1352.56        2500.00        3307.34     
  1349.36        2500.00        3307.76     
  1346.15        2500.00        3308.18     
  1342.95        2500.00        3308.60     
  1339.74        2500.00        3309.02     
  1336.54        2500.00        3309.44     
  1333.33        2500.00        3307.10     
  1330.13        2500.00        3307.52     
  1326.92        2500.00        3307.31     
  1323.72        2500.00        3307.42     
  1320.51        2500.00        3306.55     
  1317.31        2500.00        3306.96     
  1314.10        2500.00        3307.38     
  1310.90        2500.00        3307.79     
  1307.69        2500.00        3307.91     
  1304.49        2500.00        3308.32     
  1301.28        2500.00        3308.74     
  1298.08        2500.00        3309.15     
  1294.87        2500.00        3309.57     
  1291.67        2500.00        3309.98     
  1288.46        2500.00        3310.39     
  1285.26        2500.00        3310.81     
  1282.05        2500.00        3310.68     
  1278.85        2500.00        3311.09     
  1275.64        2500.00        3311.51     
  1272.44        2500.00        3311.92     
  1269.23        2500.00        3312.33     
  1266.03        2500.00        3312.74     
  1262.82        2500.00        3313.15     
  1259.62        2500.00        3313.57     
  1256.41        2500.00        3313.50     
  1253.21        2500.00        3313.91     
  1250.00        2500.00        3314.32     
  1246.79        2500.00        3314.73     
  1243.59        2500.00        3315.14     
  1240.38        2500.00        3315.55     
  1237.18        2500.00        3315.96     
  1233.97        2500.00        3316.37     
  1230.77        2500.00        3316.38     
  1227.56        2500.00        3316.78     
  1224.36        2500.00        3317.19     
  1221.15        2500.00        3317.60     
  1217.95        2500.00        3318.01     
  1214.74        2500.00        3318.41     
  1211.54        2500.00        3318.82     
  1208.33        2500.00        3319.23     
  1205.13        2500.00        3319.30     
  1201.92        2500.00        3319.70     
  1198.72        2500.00        3320.11     
  1195.51        2500.00        3320.52     
  1192.31        2500.00        3320.92     
  1189.10        2500.00        3321.33     
  1185.90        2500.00        3321.73     
  1182.69        2500.00        3322.14     
  1179.49        2500.00        3322.27     
  1176.28        2500.00        3322.68     
  1173.08        2500.00        3323.08     
  1169.87        2500.00        3323.48     
  1166.67        2500.00        3323.89     
  1163.46        2500.00        3324.29     
  1160.26        2500.00        3324.69     
  1157.05        2500.00        3325.09     
  1153.85        2500.00        3325.30     
  1150.64        2500.00        3325.70     
  1147.44        2500.00        3326.10     
  1144.23        2500.00        3326.51     
  1141.03        2500.00        3326.91     
  1137.82        2500.00        3327.31     
  1134.62        2500.00        3327.71     
  1131.41        2500.00        3328.11     
  1128.21        2500.00        3328.39     
  1125.00        2500.00        3328.79     
  1121.79        2500.00        3329.19     
  1118.59        2500.00        3329.59     
  1115.38        2500.00        3329.99     
  1112.18        2500.00        3330.38     
  1108.97        2500.00        3330.78     
  1105.77        2500.00        3331.18     
  1102.56        2500.00        3331.54     
  1099.36        2500.00        3331.94     
  1096.15        2500.00        3332.34     
  1092.95        2500.00        3332.73     
  1089.74        2500.00        3333.13     
  1086.54        2500.00        3333.53     
  1083.33        2500.00        3333.92     
  1080.13        2500.00        3334.32     
  1076.92        2500.00        3334.76     
  1073.72        2500.00        3335.16     
  1070.51        2500.00        3335.58     
  1067.31        2500.00        3335.99     
  1064.10        2500.00        3336.40     
  1060.90        2500.00        3336.79     
  1057.69        2500.00        3337.18     
  1054.49        2500.00        3337.58     
  1051.28        2500.00        3338.03     
  1048.08        2500.00        3338.42     
  1044.87        2500.00        3338.82     
  1041.67        2500.00        3339.21     
  1038.46        2500.00        3339.60     
  1035.26        2500.00        3339.99     
  1032.05        2500.00        3340.39     
  1028.85        2500.00        3340.78     
  1025.64        2500.00        3341.34     
  1022.44        2500.00        3341.73     
  1019.23        2500.00        3342.12     
  1016.03        2500.00        3342.51     
  1012.82        2500.00        3342.90     
  1009.62        2500.00        3343.29     
  1006.41        2500.00        3343.68     
  1003.21        2500.00        3344.07     
  1000.00        2500.00        3344.72     
