|6.6.6
Archiving\03_Data\frac/QFM_m0.25/ALH/ALH_6.tab                            
           1
T(K)    
  0.000000000000000E+000
  0.000000000000000E+000
           0
           3
T(K)           P(bar)         rho,kg/m3     
  2000.00        2500.00        4962.58     
  1997.49        2500.00        4963.29     
  1994.99        2500.00        4964.00     
  1992.48        2500.00        4964.71     
  1989.97        2500.00        4965.42     
  1987.47        2500.00        4966.14     
  1984.96        2500.00        4966.85     
  1982.46        2500.00        4967.56     
  1979.95        2500.00        4968.27     
  1977.44        2500.00        4968.98     
  1974.94        2500.00        4969.69     
  1972.43        2500.00        4970.39     
  1969.92        2500.00        4971.10     
  1967.42        2500.00        4971.81     
  1964.91        2500.00        4972.52     
  1962.41        2500.00        4973.23     
  1959.90        2500.00        4973.93     
  1957.39        2500.00        4974.64     
  1954.89        2500.00        4975.34     
  1952.38        2500.00        4976.05     
  1949.87        2500.00        4976.76     
  1947.37        2500.00        4977.46     
  1944.86        2500.00        4978.17     
  1942.36        2500.00        4978.87     
  1939.85        2500.00        4979.57     
  1937.34        2500.00        4980.28     
  1934.84        2500.00        4980.98     
  1932.33        2500.00        4981.68     
  1929.82        2500.00        4982.38     
  1927.32        2500.00        4983.09     
  1924.81        2500.00        4983.79     
  1922.31        2500.00        4984.49     
  1919.80        2500.00        4985.19     
  1917.29        2500.00        4985.89     
  1914.79        2500.00        4986.59     
  1912.28        2500.00        4987.29     
  1909.77        2500.00        4987.99     
  1907.27        2500.00        4988.69     
  1904.76        2500.00        4989.39     
  1902.26        2500.00        4990.08     
  1899.75        2500.00        4990.78     
  1897.24        2500.00        4991.48     
  1894.74        2500.00        4992.18     
  1892.23        2500.00        4992.87     
  1889.72        2500.00        4993.57     
  1887.22        2500.00        4994.26     
  1884.71        2500.00        4994.96     
  1882.21        2500.00        4995.63     
  1879.70        2500.00        3184.54     
  1877.19        2500.00        3186.35     
  1874.69        2500.00        3188.28     
  1872.18        2500.00        3189.99     
  1869.67        2500.00        3192.11     
  1867.17        2500.00        3193.62     
  1864.66        2500.00        3195.49     
  1862.16        2500.00        3197.53     
  1859.65        2500.00        3199.30     
  1857.14        2500.00        3214.26     
  1854.64        2500.00        3204.66     
  1852.13        2500.00        3220.72     
  1849.62        2500.00        3226.58     
  1847.12        2500.00        3228.33     
  1844.61        2500.00        3230.06     
  1842.11        2500.00        3232.10     
  1839.60        2500.00        3233.83     
  1837.09        2500.00        3237.04     
  1834.59        2500.00        3237.90     
  1832.08        2500.00        3240.31     
  1829.57        2500.00        3241.74     
  1827.07        2500.00        3243.76     
  1824.56        2500.00        3245.57     
  1822.06        2500.00        3247.53     
  1819.55        2500.00        3249.42     
  1817.04        2500.00        3251.66     
  1814.54        2500.00        3254.19     
  1812.03        2500.00        3255.51     
  1809.52        2500.00        3257.80     
  1807.02        2500.00        3259.64     
  1804.51        2500.00        3261.12     
  1802.01        2500.00        3263.76     
  1799.50        2500.00        3265.76     
  1796.99        2500.00        3267.77     
  1794.49        2500.00        3269.66     
  1791.98        2500.00        3272.10     
  1789.47        2500.00        3273.52     
  1786.97        2500.00        3276.12     
  1784.46        2500.00        3278.28     
  1781.95        2500.00        3280.04     
  1779.45        2500.00        3283.15     
  1776.94        2500.00        3285.12     
  1774.44        2500.00        3286.47     
  1771.93        2500.00        3288.89     
  1769.42        2500.00        3290.06     
  1766.92        2500.00        3293.32     
  1764.41        2500.00        3294.55     
  1761.90        2500.00        3296.91     
  1759.40        2500.00        3299.29     
  1756.89        2500.00        3301.53     
  1754.39        2500.00        3302.71     
  1751.88        2500.00        3305.41     
  1749.37        2500.00        3307.33     
  1746.87        2500.00        3309.89     
  1744.36        2500.00        3311.63     
  1741.85        2500.00        3315.31     
  1739.35        2500.00        3316.82     
  1736.84        2500.00        3318.72     
  1734.34        2500.00        3320.64     
  1731.83        2500.00        3322.57     
  1729.32        2500.00        3325.39     
  1726.82        2500.00        3326.81     
  1724.31        2500.00        3328.91     
  1721.80        2500.00        3332.23     
  1719.30        2500.00        3333.40     
  1716.79        2500.00        3335.75     
  1714.29        2500.00        3337.71     
  1711.78        2500.00        3340.74     
  1709.27        2500.00        3342.26     
  1706.77        2500.00        3339.65     
  1704.26        2500.00        3354.68     
  1701.75        2500.00        3349.60     
  1699.25        2500.00        3351.68     
  1696.74        2500.00        3353.30     
  1694.24        2500.00        3355.13     
  1691.73        2500.00        3357.57     
  1689.22        2500.00        3360.01     
  1686.72        2500.00        3363.42     
  1684.21        2500.00        3363.16     
  1681.70        2500.00        3366.11     
  1679.20        2500.00        3369.42     
  1676.69        2500.00        3370.98     
  1674.19        2500.00        3374.65     
  1671.68        2500.00        3375.93     
  1669.17        2500.00        3378.31     
  1666.67        2500.00        3379.48     
  1664.16        2500.00        3383.05     
  1661.65        2500.00        3384.38     
  1659.15        2500.00        3387.61     
  1656.64        2500.00        3389.43     
  1654.14        2500.00        3391.69     
  1651.63        2500.00        3395.61     
  1649.12        2500.00        3405.51     
  1646.62        2500.00        3391.67     
  1644.11        2500.00        3399.38     
  1641.60        2500.00        3402.37     
  1639.10        2500.00        3404.45     
  1636.59        2500.00        3407.41     
  1634.09        2500.00        3409.40     
  1631.58        2500.00        3411.88     
  1629.07        2500.00        3414.73     
  1626.57        2500.00        3416.05     
  1624.06        2500.00        3418.66     
  1621.55        2500.00        3420.56     
  1619.05        2500.00        3422.78     
  1616.54        2500.00        3425.05     
  1614.04        2500.00        3427.66     
  1611.53        2500.00        3430.66     
  1609.02        2500.00        3432.59     
  1606.52        2500.00        3432.97     
  1604.01        2500.00        3436.32     
  1601.50        2500.00        3438.78     
  1599.00        2500.00        3441.16     
  1596.49        2500.00        3443.93     
  1593.98        2500.00        3447.30     
  1591.48        2500.00        3446.88     
  1588.97        2500.00        3450.31     
  1586.47        2500.00        3452.05     
  1583.96        2500.00        3454.18     
  1581.45        2500.00        3458.36     
  1578.95        2500.00        3320.37     
  1576.44        2500.00        3319.85     
  1573.93        2500.00        3321.62     
  1571.43        2500.00        3323.06     
  1568.92        2500.00        3324.44     
  1566.42        2500.00        3331.56     
  1563.91        2500.00        3327.17     
  1561.40        2500.00        3329.08     
  1558.90        2500.00        3330.53     
  1556.39        2500.00        3332.20     
  1553.88        2500.00        3333.75     
  1551.38        2500.00        3336.12     
  1548.87        2500.00        3336.70     
  1546.37        2500.00        3338.23     
  1543.86        2500.00        3340.22     
  1541.35        2500.00        3341.51     
  1538.85        2500.00        3342.83     
  1536.34        2500.00        3345.29     
  1533.83        2500.00        3346.45     
  1531.33        2500.00        3346.75     
  1528.82        2500.00        3349.16     
  1526.32        2500.00        3350.29     
  1523.81        2500.00        3352.29     
  1521.30        2500.00        3349.12     
  1518.80        2500.00        3355.86     
  1516.29        2500.00        3356.12     
  1513.78        2500.00        3357.33     
  1511.28        2500.00        3358.49     
  1508.77        2500.00        3360.11     
  1506.27        2500.00        3361.18     
  1503.76        2500.00        3363.34     
  1501.25        2500.00        3364.85     
  1498.75        2500.00        3365.93     
  1496.24        2500.00        3367.61     
  1493.73        2500.00        3367.88     
  1491.23        2500.00        3369.79     
  1488.72        2500.00        3336.57     
  1486.22        2500.00        3331.78     
  1483.71        2500.00        3334.67     
  1481.20        2500.00        3335.75     
  1478.70        2500.00        3337.05     
  1476.19        2500.00        3339.01     
  1473.68        2500.00        3340.82     
  1471.18        2500.00        3342.11     
  1468.67        2500.00        3343.50     
  1466.17        2500.00        3345.02     
  1463.66        2500.00        3324.92     
  1461.15        2500.00        3323.95     
  1458.65        2500.00        3326.62     
  1456.14        2500.00        3334.78     
  1453.63        2500.00        3356.14     
  1451.13        2500.00        3358.52     
  1448.62        2500.00        3361.27     
  1446.12        2500.00        3364.12     
  1443.61        2500.00        3366.36     
  1441.10        2500.00        3369.21     
  1438.60        2500.00        3371.87     
  1436.09        2500.00        3374.37     
  1433.58        2500.00        3376.81     
  1431.08        2500.00        3379.70     
  1428.57        2500.00        3382.32     
  1426.07        2500.00        3385.20     
  1423.56        2500.00        3387.11     
  1421.05        2500.00        3390.60     
  1418.55        2500.00        3393.13     
  1416.04        2500.00        3395.88     
  1413.53        2500.00        3398.22     
  1411.03        2500.00        3401.49     
  1408.52        2500.00        3403.86     
  1406.02        2500.00        3406.68     
  1403.51        2500.00        3409.33     
  1401.00        2500.00        3411.91     
  1398.50        2500.00        3414.66     
  1395.99        2500.00        3417.22     
  1393.48        2500.00        3420.36     
  1390.98        2500.00        3341.60     
  1388.47        2500.00        3248.08     
  1385.96        2500.00        3253.15     
  1383.46        2500.00        3258.29     
  1380.95        2500.00        3263.59     
  1378.45        2500.00        3270.91     
  1375.94        2500.00        3307.27     
  1373.43        2500.00        3337.97     
  1370.93        2500.00        3366.98     
  1368.42        2500.00        3385.55     
  1365.91        2500.00        3395.70     
  1363.41        2500.00        3400.87     
  1360.90        2500.00        3404.07     
  1358.40        2500.00        3406.74     
  1355.89        2500.00        3408.91     
  1353.38        2500.00        3410.60     
  1350.88        2500.00        3412.17     
  1348.37        2500.00        3413.44     
  1345.86        2500.00        3414.81     
  1343.36        2500.00        3415.86     
  1340.85        2500.00        3416.73     
  1338.35        2500.00        3417.57     
  1335.84        2500.00        3418.36     
  1333.33        2500.00        3418.94     
  1330.83        2500.00        3419.58     
  1328.32        2500.00        3419.92     
  1325.81        2500.00        3420.30     
  1323.31        2500.00        3420.41     
  1320.80        2500.00        3420.61     
  1318.30        2500.00        3420.68     
  1315.79        2500.00        3420.65     
  1313.28        2500.00        3420.49     
  1310.78        2500.00        3420.31     
  1308.27        2500.00        3420.01     
  1305.76        2500.00        3419.58     
  1303.26        2500.00        3419.21     
  1300.75        2500.00        3418.56     
  1298.25        2500.00        3418.19     
  1295.74        2500.00        3417.16     
  1293.23        2500.00        3416.59     
  1290.73        2500.00        2921.58     
  1288.22        2500.00        2893.51     
  1285.71        2500.00        2896.36     
  1283.21        2500.00        2899.12     
  1280.70        2500.00        2901.56     
  1278.20        2500.00        2903.87     
  1275.69        2500.00        2904.09     
  1273.18        2500.00        2910.66     
  1270.68        2500.00        2908.00     
  1268.17        2500.00        2910.84     
  1265.66        2500.00        2909.31     
  1263.16        2500.00        2915.90     
  1260.65        2500.00        2909.87     
  1258.15        2500.00        2916.18     
  1255.64        2500.00        2912.01     
  1253.13        2500.00        2911.87     
  1250.63        2500.00        2907.56     
  1248.12        2500.00        2895.51     
  1245.61        2500.00        2911.60     
  1243.11        2500.00        2906.85     
  1240.60        2500.00        2736.97     
  1238.10        2500.00        2731.81     
  1235.59        2500.00        2740.30     
  1233.08        2500.00        2727.80     
  1230.58        2500.00        2729.31     
  1228.07        2500.00        2714.56     
  1225.56        2500.00        2705.22     
  1223.06        2500.00        2682.62     
  1220.55        2500.00        2682.73     
  1218.05        2500.00        2682.84     
  1215.54        2500.00        2682.95     
  1213.03        2500.00        2683.06     
  1210.53        2500.00        2683.17     
  1208.02        2500.00        2683.26     
  1205.51        2500.00        2683.39     
  1203.01        2500.00        2683.29     
  1200.50        2500.00        2683.61     
  1197.99        2500.00        2683.70     
  1195.49        2500.00        2683.39     
  1192.98        2500.00        2683.91     
  1190.48        2500.00        2683.96     
  1187.97        2500.00        2684.08     
  1185.46        2500.00        2684.23     
  1182.96        2500.00        2684.02     
  1180.45        2500.00        2684.46     
  1177.94        2500.00        2684.54     
  1175.44        2500.00        2684.40     
  1172.93        2500.00        2684.78     
  1170.43        2500.00        2684.89     
  1167.92        2500.00        2684.92     
  1165.41        2500.00        2685.08     
  1162.91        2500.00        2685.17     
  1160.40        2500.00        2685.28     
  1157.89        2500.00        2685.39     
  1155.39        2500.00        2685.52     
  1152.88        2500.00        2685.62     
  1150.38        2500.00        2685.75     
  1147.87        2500.00        2685.86     
  1145.36        2500.00        2685.97     
  1142.86        2500.00        2686.08     
  1140.35        2500.00        2686.29     
  1137.84        2500.00        2686.40     
  1135.34        2500.00        2686.45     
  1132.83        2500.00        2686.60     
  1130.33        2500.00        2686.74     
  1127.82        2500.00        2686.88     
  1125.31        2500.00        2687.04     
  1122.81        2500.00        2687.18     
  1120.30        2500.00        2687.46     
  1117.79        2500.00        2687.78     
  1115.29        2500.00        2688.20     
  1112.78        2500.00        2688.59     
  1110.28        2500.00        2688.98     
  1107.77        2500.00        2689.39     
  1105.26        2500.00        2690.00     
  1102.76        2500.00        2690.23     
  1100.25        2500.00        2690.70     
  1097.74        2500.00        2691.98     
  1095.24        2500.00        2692.28     
  1092.73        2500.00        2692.41     
  1090.23        2500.00        2692.65     
  1087.72        2500.00        2693.18     
  1085.21        2500.00        2693.79     
  1082.71        2500.00        2694.34     
  1080.20        2500.00        2694.99     
  1077.69        2500.00        2695.69     
  1075.19        2500.00        2696.39     
  1072.68        2500.00        2697.13     
  1070.18        2500.00        2697.96     
  1067.67        2500.00        2698.70     
  1065.16        2500.00        2699.70     
  1062.66        2500.00        2700.74     
  1060.15        2500.00        2701.85     
  1057.64        2500.00        2703.10     
  1055.14        2500.00        2704.46     
  1052.63        2500.00        2705.98     
  1050.13        2500.00        2706.48     
  1047.62        2500.00        2706.60     
  1045.11        2500.00        2706.72     
  1042.61        2500.00        2706.81     
  1040.10        2500.00        2706.92     
  1037.59        2500.00        2707.04     
  1035.09        2500.00        2707.15     
  1032.58        2500.00        2707.27     
  1030.08        2500.00        2707.43     
  1027.57        2500.00        2707.50     
  1025.06        2500.00        2707.62     
  1022.56        2500.00        2707.74     
  1020.05        2500.00        2707.85     
  1017.54        2500.00        2707.97     
  1015.04        2500.00        2708.11     
  1012.53        2500.00        2708.24     
  1010.03        2500.00        2708.37     
  1007.52        2500.00        2708.49     
  1005.01        2500.00        2708.60     
  1002.51        2500.00        2708.71     
  1000.00        2500.00        2708.77     
