|6.6.6
Archiving\03_Data\Deq/QFM_m4.75/WD94/WD94_6.tab                           
           1
T(K)    
  0.000000000000000E+000
  0.000000000000000E+000
           0
           3
T(K)           P(bar)         rho,kg/m3     
  2000.00        2500.00        7283.63     
  1996.79        2500.00        7285.02     
  1993.59        2500.00        7286.40     
  1990.38        2500.00        7287.78     
  1987.18        2500.00        7289.16     
  1983.97        2500.00        7290.54     
  1980.77        2500.00        7291.92     
  1977.56        2500.00        7293.30     
  1974.36        2500.00        7294.68     
  1971.15        2500.00        7296.05     
  1967.95        2500.00        7297.42     
  1964.74        2500.00        7298.80     
  1961.54        2500.00        7300.17     
  1958.33        2500.00        7301.54     
  1955.13        2500.00        7302.91     
  1951.92        2500.00        7304.28     
  1948.72        2500.00        7305.64     
  1945.51        2500.00        7307.01     
  1942.31        2500.00        7308.37     
  1939.10        2500.00        7309.74     
  1935.90        2500.00        7311.10     
  1932.69        2500.00        7312.46     
  1929.49        2500.00        7313.82     
  1926.28        2500.00        7315.18     
  1923.08        2500.00        7316.54     
  1919.87        2500.00        7317.89     
  1916.67        2500.00        7319.25     
  1913.46        2500.00        7320.60     
  1910.26        2500.00        6278.37     
  1907.05        2500.00        5574.94     
  1903.85        2500.00        5129.36     
  1900.64        2500.00        4821.88     
  1897.44        2500.00        4596.97     
  1894.23        2500.00        4433.55     
  1891.03        2500.00        4303.24     
  1887.82        2500.00        4196.93     
  1884.62        2500.00        4108.57     
  1881.41        2500.00        4033.98     
  1878.21        2500.00        3970.19     
  1875.00        2500.00        3915.02     
  1871.79        2500.00        3866.86     
  1868.59        2500.00        3826.05     
  1865.38        2500.00        3789.68     
  1862.18        2500.00        3757.06     
  1858.97        2500.00        3727.64     
  1855.77        2500.00        3641.90     
  1852.56        2500.00        3637.29     
  1849.36        2500.00        3636.55     
  1846.15        2500.00        3635.82     
  1842.95        2500.00        3617.56     
  1839.74        2500.00        3600.70     
  1836.54        2500.00        3585.09     
  1833.33        2500.00        3570.59     
  1830.13        2500.00        3557.10     
  1826.92        2500.00        3544.52     
  1823.72        2500.00        3532.75     
  1820.51        2500.00        3521.74     
  1817.31        2500.00        3511.13     
  1814.10        2500.00        3501.17     
  1810.90        2500.00        3491.80     
  1807.69        2500.00        3482.97     
  1804.49        2500.00        3474.63     
  1801.28        2500.00        3466.76     
  1798.08        2500.00        3459.30     
  1794.87        2500.00        3452.24     
  1791.67        2500.00        3445.36     
  1788.46        2500.00        3438.84     
  1785.26        2500.00        3432.64     
  1782.05        2500.00        3426.74     
  1778.85        2500.00        3421.13     
  1775.64        2500.00        3415.78     
  1772.44        2500.00        3410.68     
  1769.23        2500.00        3405.81     
  1766.03        2500.00        3400.95     
  1762.82        2500.00        3396.31     
  1759.62        2500.00        3391.88     
  1756.41        2500.00        3387.64     
  1753.21        2500.00        3383.59     
  1750.00        2500.00        3379.71     
  1746.79        2500.00        3375.99     
  1743.59        2500.00        3372.42     
  1740.38        2500.00        3368.93     
  1737.18        2500.00        3365.58     
  1733.97        2500.00        3362.36     
  1730.77        2500.00        3359.27     
  1727.56        2500.00        3356.31     
  1724.36        2500.00        3353.46     
  1721.15        2500.00        3350.72     
  1717.95        2500.00        3348.08     
  1714.74        2500.00        3345.53     
  1711.54        2500.00        3343.07     
  1708.33        2500.00        3340.71     
  1705.13        2500.00        3338.43     
  1701.92        2500.00        3336.26     
  1698.72        2500.00        3334.17     
  1695.51        2500.00        3332.19     
  1692.31        2500.00        3332.67     
  1689.10        2500.00        3333.93     
  1685.90        2500.00        3335.17     
  1682.69        2500.00        3336.40     
  1679.49        2500.00        3337.61     
  1676.28        2500.00        3338.81     
  1673.08        2500.00        3339.99     
  1669.87        2500.00        3341.16     
  1666.67        2500.00        3342.32     
  1663.46        2500.00        3342.71     
  1660.26        2500.00        3342.71     
  1657.05        2500.00        3341.63     
  1653.85        2500.00        3340.61     
  1650.64        2500.00        3340.00     
  1647.44        2500.00        3339.44     
  1644.23        2500.00        3338.91     
  1641.03        2500.00        3338.42     
  1637.82        2500.00        3338.18     
  1634.62        2500.00        3337.95     
  1631.41        2500.00        3337.74     
  1628.21        2500.00        3337.55     
  1625.00        2500.00        3337.37     
  1621.79        2500.00        3337.22     
  1618.59        2500.00        3337.07     
  1615.38        2500.00        3336.94     
  1612.18        2500.00        3337.02     
  1608.97        2500.00        3337.10     
  1605.77        2500.00        3337.18     
  1602.56        2500.00        3337.28     
  1599.36        2500.00        3337.38     
  1596.15        2500.00        3337.48     
  1592.95        2500.00        3337.59     
  1589.74        2500.00        3337.71     
  1586.54        2500.00        3337.92     
  1583.33        2500.00        3338.13     
  1580.13        2500.00        3338.35     
  1576.92        2500.00        3338.57     
  1573.72        2500.00        3338.79     
  1570.51        2500.00        3339.01     
  1567.31        2500.00        3339.24     
  1564.10        2500.00        3339.47     
  1560.90        2500.00        3339.75     
  1557.69        2500.00        3340.04     
  1554.49        2500.00        3340.32     
  1551.28        2500.00        3340.61     
  1548.08        2500.00        3340.90     
  1544.87        2500.00        3341.19     
  1541.67        2500.00        3341.48     
  1538.46        2500.00        3341.77     
  1535.26        2500.00        3342.07     
  1532.05        2500.00        3342.37     
  1528.85        2500.00        3342.67     
  1525.64        2500.00        3342.97     
  1522.44        2500.00        3343.27     
  1519.23        2500.00        3343.58     
  1516.03        2500.00        3343.88     
  1512.82        2500.00        3344.19     
  1509.62        2500.00        3344.51     
  1506.41        2500.00        3344.84     
  1503.21        2500.00        3345.16     
  1500.00        2500.00        3345.49     
  1496.79        2500.00        3345.76     
  1493.59        2500.00        3346.15     
  1490.38        2500.00        3346.52     
  1487.18        2500.00        3346.89     
  1483.97        2500.00        3347.22     
  1480.77        2500.00        3347.64     
  1477.56        2500.00        3348.09     
  1474.36        2500.00        3348.35     
  1471.15        2500.00        3348.80     
  1467.95        2500.00        3349.24     
  1464.74        2500.00        3349.69     
  1461.54        2500.00        3350.04     
  1458.33        2500.00        3350.48     
  1455.13        2500.00        3350.93     
  1451.92        2500.00        3351.37     
  1448.72        2500.00        3351.67     
  1445.51        2500.00        3352.11     
  1442.31        2500.00        3352.55     
  1439.10        2500.00        3352.89     
  1435.90        2500.00        3353.21     
  1432.69        2500.00        3353.65     
  1429.49        2500.00        3354.10     
  1426.28        2500.00        3354.54     
  1423.08        2500.00        3354.98     
  1419.87        2500.00        3355.42     
  1416.67        2500.00        3355.86     
  1413.46        2500.00        3356.30     
  1410.26        2500.00        3350.91     
  1407.05        2500.00        3351.35     
  1403.85        2500.00        3351.78     
  1400.64        2500.00        3352.22     
  1397.44        2500.00        3352.66     
  1394.23        2500.00        3353.09     
  1391.03        2500.00        3353.53     
  1387.82        2500.00        3353.97     
  1384.62        2500.00        3350.35     
  1381.41        2500.00        3350.79     
  1378.21        2500.00        3351.22     
  1375.00        2500.00        3351.65     
  1371.79        2500.00        3352.09     
  1368.59        2500.00        3352.52     
  1365.38        2500.00        3352.95     
  1362.18        2500.00        3353.38     
  1358.97        2500.00        3350.58     
  1355.77        2500.00        3351.01     
  1352.56        2500.00        3351.44     
  1349.36        2500.00        3351.87     
  1346.15        2500.00        3352.30     
  1342.95        2500.00        3352.73     
  1339.74        2500.00        3353.16     
  1336.54        2500.00        3353.58     
  1333.33        2500.00        3351.28     
  1330.13        2500.00        3351.71     
  1326.92        2500.00        3351.50     
  1323.72        2500.00        3351.63     
  1320.51        2500.00        3350.42     
  1317.31        2500.00        3350.85     
  1314.10        2500.00        3351.27     
  1310.90        2500.00        3351.69     
  1307.69        2500.00        3351.83     
  1304.49        2500.00        3352.25     
  1301.28        2500.00        3352.67     
  1298.08        2500.00        3353.09     
  1294.87        2500.00        3353.52     
  1291.67        2500.00        3353.94     
  1288.46        2500.00        3354.36     
  1285.26        2500.00        3354.78     
  1282.05        2500.00        3354.67     
  1278.85        2500.00        3355.09     
  1275.64        2500.00        3355.51     
  1272.44        2500.00        3355.93     
  1269.23        2500.00        3356.35     
  1266.03        2500.00        3356.77     
  1262.82        2500.00        3357.19     
  1259.62        2500.00        3357.61     
  1256.41        2500.00        3357.56     
  1253.21        2500.00        3357.98     
  1250.00        2500.00        3358.39     
  1246.79        2500.00        3358.81     
  1243.59        2500.00        3359.23     
  1240.38        2500.00        3359.65     
  1237.18        2500.00        3360.07     
  1233.97        2500.00        3360.48     
  1230.77        2500.00        3360.49     
  1227.56        2500.00        3360.91     
  1224.36        2500.00        3361.32     
  1221.15        2500.00        3361.74     
  1217.95        2500.00        3362.16     
  1214.74        2500.00        3362.57     
  1211.54        2500.00        3362.99     
  1208.33        2500.00        3363.40     
  1205.13        2500.00        3363.47     
  1201.92        2500.00        3363.89     
  1198.72        2500.00        3364.30     
  1195.51        2500.00        3364.71     
  1192.31        2500.00        3365.13     
  1189.10        2500.00        3365.54     
  1185.90        2500.00        3365.95     
  1182.69        2500.00        3366.37     
  1179.49        2500.00        3366.49     
  1176.28        2500.00        3366.91     
  1173.08        2500.00        3367.32     
  1169.87        2500.00        3367.73     
  1166.67        2500.00        3368.14     
  1163.46        2500.00        3368.55     
  1160.26        2500.00        3368.96     
  1157.05        2500.00        3369.37     
  1153.85        2500.00        3369.57     
  1150.64        2500.00        3369.98     
  1147.44        2500.00        3370.39     
  1144.23        2500.00        3370.80     
  1141.03        2500.00        3371.21     
  1137.82        2500.00        3371.62     
  1134.62        2500.00        3372.03     
  1131.41        2500.00        3372.44     
  1128.21        2500.00        3372.70     
  1125.00        2500.00        3373.11     
  1121.79        2500.00        3373.52     
  1118.59        2500.00        3373.92     
  1115.38        2500.00        3374.33     
  1112.18        2500.00        3374.74     
  1108.97        2500.00        3375.14     
  1105.77        2500.00        3375.55     
  1102.56        2500.00        3375.87     
  1099.36        2500.00        3376.28     
  1096.15        2500.00        3376.69     
  1092.95        2500.00        3377.09     
  1089.74        2500.00        3377.50     
  1086.54        2500.00        3377.90     
  1083.33        2500.00        3378.31     
  1080.13        2500.00        3378.71     
  1076.92        2500.00        3379.11     
  1073.72        2500.00        3379.51     
  1070.51        2500.00        3379.91     
  1067.31        2500.00        3380.32     
  1064.10        2500.00        3380.77     
  1060.90        2500.00        3381.18     
  1057.69        2500.00        3381.59     
  1054.49        2500.00        3382.00     
  1051.28        2500.00        3382.40     
  1048.08        2500.00        3382.81     
  1044.87        2500.00        3383.21     
  1041.67        2500.00        3383.61     
  1038.46        2500.00        3384.01     
  1035.26        2500.00        3384.41     
  1032.05        2500.00        3384.81     
  1028.85        2500.00        3385.21     
  1025.64        2500.00        3385.72     
  1022.44        2500.00        3386.12     
  1019.23        2500.00        3386.52     
  1016.03        2500.00        3386.92     
  1012.82        2500.00        3387.32     
  1009.62        2500.00        3387.72     
  1006.41        2500.00        3388.12     
  1003.21        2500.00        3388.52     
  1000.00        2500.00        3389.10     
