|6.6.6
Archiving\03_Data\Deqfrac/QFM_m1.5/YM20/YM20_6.tab                      
           1
T(K)    
  0.000000000000000E+000
  0.000000000000000E+000
           0
           3
T(K)           P(bar)         rho,kg/m3     
  1615.38        2500.00        3219.66     
  1613.84        2500.00        3222.25     
  1612.30        2500.00        3229.86     
  1610.75        2500.00        3231.59     
  1609.21        2500.00        3232.01     
  1607.67        2500.00        3232.12     
  1606.13        2500.00        3232.89     
  1604.58        2500.00        3233.27     
  1603.04        2500.00        3233.87     
  1601.50        2500.00        3234.29     
  1599.96        2500.00        3235.17     
  1598.41        2500.00        3235.35     
  1596.87        2500.00        3235.81     
  1595.33        2500.00        3236.21     
  1593.79        2500.00        3237.25     
  1592.25        2500.00        3237.66     
  1590.70        2500.00        3238.20     
  1589.16        2500.00        3239.68     
  1587.62        2500.00        3239.46     
  1586.08        2500.00        3239.38     
  1584.53        2500.00        3241.60     
  1582.99        2500.00        3240.45     
  1581.45        2500.00        3240.99     
  1579.91        2500.00        3241.75     
  1578.36        2500.00        3241.95     
  1576.82        2500.00        3242.52     
  1575.28        2500.00        3242.91     
  1573.74        2500.00        3243.10     
  1572.20        2500.00        3243.75     
  1570.65        2500.00        3244.19     
  1569.11        2500.00        3242.40     
  1567.57        2500.00        3247.62     
  1566.03        2500.00        3245.85     
  1564.48        2500.00        3246.62     
  1562.94        2500.00        3247.01     
  1561.40        2500.00        3247.11     
  1559.86        2500.00        3247.59     
  1558.31        2500.00        3248.10     
  1556.77        2500.00        3248.24     
  1555.23        2500.00        3248.88     
  1553.69        2500.00        3249.66     
  1552.15        2500.00        3249.76     
  1550.60        2500.00        3250.60     
  1549.06        2500.00        3251.08     
  1547.52        2500.00        3251.21     
  1545.98        2500.00        3252.06     
  1544.43        2500.00        3256.22     
  1542.89        2500.00        3249.89     
  1541.35        2500.00        3253.27     
  1539.81        2500.00        3253.55     
  1538.26        2500.00        3253.62     
  1536.72        2500.00        3254.60     
  1535.18        2500.00        3254.71     
  1533.64        2500.00        3252.06     
  1532.10        2500.00        3255.98     
  1530.55        2500.00        3256.26     
  1529.01        2500.00        3256.47     
  1527.47        2500.00        3257.83     
  1525.93        2500.00        3257.38     
  1524.38        2500.00        3257.54     
  1522.84        2500.00        3262.83     
  1521.30        2500.00        3254.26     
  1519.76        2500.00        3259.09     
  1518.21        2500.00        3259.49     
  1516.67        2500.00        3259.84     
  1515.13        2500.00        3261.77     
  1513.59        2500.00        3260.06     
  1512.05        2500.00        3260.61     
  1510.50        2500.00        3260.96     
  1508.96        2500.00        3251.23     
  1507.42        2500.00        3247.87     
  1505.88        2500.00        3245.25     
  1504.33        2500.00        3241.67     
  1502.79        2500.00        3236.73     
  1501.25        2500.00        3238.45     
  1499.71        2500.00        3241.82     
  1498.16        2500.00        3240.43     
  1496.62        2500.00        3245.29     
  1495.08        2500.00        3246.66     
  1493.54        2500.00        3248.27     
  1492.00        2500.00        3248.99     
  1490.45        2500.00        3250.12     
  1488.91        2500.00        3251.24     
  1487.37        2500.00        3252.43     
  1485.83        2500.00        3253.53     
  1484.28        2500.00        3255.02     
  1482.74        2500.00        3255.95     
  1481.20        2500.00        3256.93     
  1479.66        2500.00        3258.20     
  1478.11        2500.00        3259.30     
  1476.57        2500.00        3260.29     
  1475.03        2500.00        3261.68     
  1473.49        2500.00        3262.82     
  1471.95        2500.00        3264.15     
  1470.40        2500.00        3265.40     
  1468.86        2500.00        3266.47     
  1467.32        2500.00        3267.57     
  1465.78        2500.00        3268.83     
  1464.23        2500.00        3275.11     
  1462.69        2500.00        3269.45     
  1461.15        2500.00        3270.76     
  1459.61        2500.00        3252.93     
  1458.06        2500.00        3099.41     
  1456.52        2500.00        3101.47     
  1454.98        2500.00        3103.35     
  1453.44        2500.00        3105.36     
  1451.90        2500.00        3107.37     
  1450.35        2500.00        3109.32     
  1448.81        2500.00        3111.27     
  1447.27        2500.00        3113.37     
  1445.73        2500.00        3115.46     
  1444.18        2500.00        3117.36     
  1442.64        2500.00        3119.32     
  1441.10        2500.00        3121.33     
  1439.56        2500.00        3123.45     
  1438.01        2500.00        3125.38     
  1436.47        2500.00        3127.43     
  1434.93        2500.00        3129.57     
  1433.39        2500.00        3131.56     
  1431.85        2500.00        3133.61     
  1430.30        2500.00        3135.70     
  1428.76        2500.00        3137.82     
  1427.22        2500.00        3139.63     
  1425.68        2500.00        3141.89     
  1424.13        2500.00        3144.23     
  1422.59        2500.00        3146.05     
  1421.05        2500.00        3148.16     
  1419.51        2500.00        3150.03     
  1417.96        2500.00        3152.49     
  1416.42        2500.00        3154.53     
  1414.88        2500.00        3156.58     
  1413.34        2500.00        3158.73     
  1411.80        2500.00        3160.78     
  1410.25        2500.00        3163.05     
  1408.71        2500.00        3165.00     
  1407.17        2500.00        3167.34     
  1405.63        2500.00        3169.71     
  1404.08        2500.00        3171.62     
  1402.54        2500.00        3173.88     
  1401.00        2500.00        3176.10     
  1399.46        2500.00        3178.36     
  1397.91        2500.00        3180.80     
  1396.37        2500.00        3182.68     
  1394.83        2500.00        3184.89     
  1393.29        2500.00        3187.04     
  1391.75        2500.00        3189.20     
  1390.20        2500.00        3191.57     
  1388.66        2500.00        3193.67     
  1387.12        2500.00        3195.68     
  1385.58        2500.00        3198.10     
  1384.03        2500.00        3200.29     
  1382.49        2500.00        3202.52     
  1380.95        2500.00        3204.73     
  1379.41        2500.00        3206.89     
  1377.86        2500.00        3209.06     
  1376.32        2500.00        3211.24     
  1374.78        2500.00        3213.53     
  1373.24        2500.00        3215.86     
  1371.70        2500.00        3218.17     
  1370.15        2500.00        3220.13     
  1368.61        2500.00        3222.21     
  1367.07        2500.00        3224.44     
  1365.53        2500.00        3226.53     
  1363.98        2500.00        3228.48     
  1362.44        2500.00        3230.71     
  1360.90        2500.00        3233.07     
  1359.36        2500.00        3234.88     
  1357.81        2500.00        3237.09     
  1356.27        2500.00        3239.12     
  1354.73        2500.00        3241.17     
  1353.19        2500.00        3243.16     
  1351.65        2500.00        3245.20     
  1350.10        2500.00        3247.05     
  1348.56        2500.00        3248.98     
  1347.02        2500.00        3251.05     
  1345.48        2500.00        3252.65     
  1343.93        2500.00        3254.53     
  1342.39        2500.00        3256.36     
  1340.85        2500.00        3258.23     
  1339.31        2500.00        3259.95     
  1337.76        2500.00        3261.52     
  1336.22        2500.00        3263.38     
  1334.68        2500.00        3264.92     
  1333.14        2500.00        3266.39     
  1331.60        2500.00        3268.02     
  1330.05        2500.00        3269.48     
  1328.51        2500.00        3271.00     
  1326.97        2500.00        3272.37     
  1325.43        2500.00        3273.76     
  1323.88        2500.00        3274.87     
  1322.34        2500.00        3276.36     
  1320.80        2500.00        3277.51     
  1319.26        2500.00        3278.65     
  1317.71        2500.00        3279.71     
  1316.17        2500.00        3280.82     
  1314.63        2500.00        3281.67     
  1313.09        2500.00        3282.67     
  1311.55        2500.00        3283.55     
  1310.00        2500.00        3284.31     
  1308.46        2500.00        3285.02     
  1306.92        2500.00        3285.87     
  1305.38        2500.00        3286.22     
  1303.83        2500.00        3286.87     
  1302.29        2500.00        3287.28     
  1300.75        2500.00        2879.01     
  1299.21        2500.00        2824.37     
  1297.67        2500.00        2828.40     
  1296.12        2500.00        2832.34     
  1294.58        2500.00        2852.86     
  1293.04        2500.00        2864.99     
  1291.50        2500.00        2866.84     
  1289.95        2500.00        2868.35     
  1288.41        2500.00        2869.73     
  1286.87        2500.00        2870.06     
  1285.33        2500.00        2869.76     
  1283.78        2500.00        2872.89     
  1282.24        2500.00        2858.16     
  1280.70        2500.00        2883.50     
  1279.16        2500.00        2872.34     
  1277.62        2500.00        2853.66     
  1276.07        2500.00        2921.98     
  1274.53        2500.00        2878.68     
  1272.99        2500.00        2872.59     
  1271.45        2500.00        2871.04     
  1269.90        2500.00        2868.81     
  1268.36        2500.00        2867.23     
  1266.82        2500.00        2864.76     
  1265.28        2500.00        2895.22     
  1263.73        2500.00        2815.01     
  1262.19        2500.00        3049.91     
  1260.65        2500.00        2865.87     
  1259.11        2500.00        2869.00     
  1257.57        2500.00        2844.89     
  1256.02        2500.00        2863.66     
  1254.48        2500.00        2870.48     
  1252.94        2500.00        3045.85     
  1251.40        2500.00        2891.54     
  1249.85        2500.00        2863.31     
  1248.31        2500.00        2877.17     
  1246.77        2500.00        2966.55     
  1245.23        2500.00        2782.15     
  1243.68        2500.00        2812.03     
  1242.14        2500.00        2810.02     
  1240.60        2500.00        2944.77     
  1239.06        2500.00        2862.04     
  1237.52        2500.00        2861.95     
  1235.97        2500.00        2889.35     
  1234.43        2500.00        2809.55     
  1232.89        2500.00        2853.20     
  1231.35        2500.00        2868.23     
  1229.80        2500.00        2757.14     
  1228.26        2500.00        2857.54     
  1226.72        2500.00        2688.47     
  1225.18        2500.00        2688.54     
  1223.63        2500.00        2688.39     
  1222.09        2500.00        2688.47     
  1220.55        2500.00        2688.56     
  1219.01        2500.00        2688.83     
  1217.47        2500.00        2688.72     
  1215.92        2500.00        2688.80     
  1214.38        2500.00        2689.06     
  1212.84        2500.00        2689.14     
  1211.30        2500.00        2689.04     
  1209.75        2500.00        2689.32     
  1208.21        2500.00        2689.39     
  1206.67        2500.00        2689.29     
  1205.13        2500.00        2689.53     
  1203.58        2500.00        2689.61     
  1202.04        2500.00        2689.69     
  1200.50        2500.00        2689.76     
  1198.96        2500.00        2689.84     
  1197.42        2500.00        2689.92     
  1195.87        2500.00        2689.86     
  1194.33        2500.00        2689.94     
  1192.79        2500.00        2690.02     
  1191.25        2500.00        2690.23     
  1189.70        2500.00        2690.16     
  1188.16        2500.00        2690.39     
  1186.62        2500.00        2690.47     
  1185.08        2500.00        2690.41     
  1183.53        2500.00        2690.63     
  1181.99        2500.00        2690.57     
  1180.45        2500.00        2690.78     
  1178.91        2500.00        2690.73     
  1177.37        2500.00        2690.81     
  1175.82        2500.00        2690.89     
  1174.28        2500.00        2691.09     
  1172.74        2500.00        2691.17     
  1171.20        2500.00        2691.13     
  1169.65        2500.00        2691.32     
  1168.11        2500.00        2691.40     
  1166.57        2500.00        2691.47     
  1165.03        2500.00        2691.55     
  1163.48        2500.00        2691.63     
  1161.94        2500.00        2691.70     
  1160.40        2500.00        2691.78     
  1158.86        2500.00        2691.86     
  1157.32        2500.00        2691.94     
  1155.77        2500.00        2692.01     
  1154.23        2500.00        2692.07     
  1152.69        2500.00        2692.15     
  1151.15        2500.00        2692.22     
  1149.60        2500.00        2692.30     
  1148.06        2500.00        2692.37     
  1146.52        2500.00        2692.45     
  1144.98        2500.00        2692.56     
  1143.43        2500.00        2692.63     
  1141.89        2500.00        2692.70     
  1140.35        2500.00        2692.76     
  1138.81        2500.00        2692.86     
  1137.27        2500.00        2692.94     
  1135.72        2500.00        2693.02     
  1134.18        2500.00        2693.10     
  1132.64        2500.00        2693.17     
  1131.10        2500.00        2693.24     
  1129.55        2500.00        2693.32     
  1128.01        2500.00        2693.40     
  1126.47        2500.00        2693.47     
  1124.93        2500.00        2693.55     
  1123.38        2500.00        2693.62     
  1121.84        2500.00        2693.70     
  1120.30        2500.00        2693.77     
  1118.76        2500.00        2693.82     
  1117.22        2500.00        2693.90     
  1115.67        2500.00        2693.97     
  1114.13        2500.00        2694.05     
  1112.59        2500.00        2694.12     
  1111.05        2500.00        2694.20     
  1109.50        2500.00        2694.27     
  1107.96        2500.00        2694.35     
  1106.42        2500.00        2694.43     
  1104.88        2500.00        2694.50     
  1103.33        2500.00        2694.58     
  1101.79        2500.00        2694.65     
  1100.25        2500.00        2694.73     
  1098.71        2500.00        2694.85     
  1097.17        2500.00        2694.92     
  1095.62        2500.00        2695.00     
  1094.08        2500.00        2695.07     
  1092.54        2500.00        2695.15     
  1091.00        2500.00        2695.22     
  1089.45        2500.00        2695.29     
  1087.91        2500.00        2695.37     
  1086.37        2500.00        2695.46     
  1084.83        2500.00        2695.54     
  1083.28        2500.00        2695.61     
  1081.74        2500.00        2695.69     
  1080.20        2500.00        2695.76     
  1078.66        2500.00        2695.84     
  1077.12        2500.00        2695.91     
  1075.57        2500.00        2695.99     
  1074.03        2500.00        2696.06     
  1072.49        2500.00        2696.14     
  1070.95        2500.00        2696.21     
  1069.40        2500.00        2696.28     
  1067.86        2500.00        2696.36     
  1066.32        2500.00        2696.43     
  1064.78        2500.00        2696.50     
  1063.23        2500.00        2696.57     
  1061.69        2500.00        2696.65     
  1060.15        2500.00        2696.73     
  1058.61        2500.00        2696.80     
  1057.07        2500.00        2696.87     
  1055.52        2500.00        2696.94     
  1053.98        2500.00        2697.02     
  1052.44        2500.00        2697.09     
  1050.90        2500.00        2697.17     
  1049.35        2500.00        2697.24     
  1047.81        2500.00        2697.31     
  1046.27        2500.00        2697.39     
  1044.73        2500.00        2697.46     
  1043.18        2500.00        2697.53     
  1041.64        2500.00        2697.61     
  1040.10        2500.00        2697.68     
  1038.56        2500.00        2697.75     
  1037.02        2500.00        2697.83     
  1035.47        2500.00        2697.90     
  1033.93        2500.00        2697.98     
  1032.39        2500.00        2698.04     
  1030.85        2500.00        2698.12     
  1029.30        2500.00        2698.19     
  1027.76        2500.00        2698.27     
  1026.22        2500.00        2698.34     
  1024.68        2500.00        2698.41     
  1023.13        2500.00        2698.49     
  1021.59        2500.00        2698.56     
  1020.05        2500.00        2698.63     
  1018.51        2500.00        2698.70     
  1016.97        2500.00        2698.78     
  1015.42        2500.00        2698.85     
  1013.88        2500.00        2698.92     
  1012.34        2500.00        2698.99     
  1010.80        2500.00        2699.07     
  1009.25        2500.00        2699.14     
  1007.71        2500.00        2699.21     
  1006.17        2500.00        2699.28     
  1004.63        2500.00        2699.35     
  1003.08        2500.00        2699.43     
  1001.54        2500.00        2699.50     
  1000.00        2500.00        2699.57     
