|6.6.6
Archiving\03_Data\eqLP/QFM_m5/GRV/GRV_6.tab                               
           1
T(K)    
  0.000000000000000E+000
  0.000000000000000E+000
           0
           3
T(K)           P(bar)         rho,kg/m3     
  2000.00        500.000        6128.70     
  1996.79        500.000        6135.41     
  1993.59        500.000        6142.08     
  1990.38        500.000        6148.68     
  1987.18        500.000        6155.24     
  1983.97        500.000        6161.75     
  1980.77        500.000        6168.20     
  1977.56        500.000        6174.61     
  1974.36        500.000        6180.96     
  1971.15        500.000        6187.09     
  1967.95        500.000        6193.17     
  1964.74        500.000        6199.21     
  1961.54        500.000        6205.20     
  1958.33        500.000        6211.15     
  1955.13        500.000        6217.06     
  1951.92        500.000        6222.93     
  1948.72        500.000        6228.76     
  1945.51        500.000        6234.37     
  1942.31        500.000        6239.95     
  1939.10        500.000        6245.49     
  1935.90        500.000        6251.00     
  1932.69        500.000        6256.47     
  1929.49        500.000        6261.91     
  1926.28        500.000        6267.31     
  1923.08        500.000        6272.67     
  1919.87        500.000        6277.85     
  1916.67        500.000        6283.00     
  1913.46        500.000        6288.12     
  1910.26        500.000        6293.20     
  1907.05        500.000        6298.26     
  1903.85        500.000        6303.29     
  1900.64        500.000        6308.28     
  1897.44        500.000        6313.25     
  1894.23        500.000        6318.05     
  1891.03        500.000        6322.82     
  1887.82        500.000        6327.56     
  1884.62        500.000        6332.28     
  1881.41        500.000        6336.98     
  1878.21        500.000        6341.64     
  1875.00        500.000        6346.29     
  1871.79        500.000        6350.90     
  1868.59        500.000        6355.37     
  1865.38        500.000        6359.81     
  1862.18        500.000        6364.22     
  1858.97        500.000        6368.62     
  1855.77        500.000        6372.99     
  1852.56        500.000        6377.35     
  1849.36        500.000        6381.68     
  1846.15        500.000        6385.99     
  1842.95        500.000        6390.15     
  1839.74        500.000        6394.30     
  1836.54        500.000        6398.43     
  1833.33        500.000        6402.54     
  1830.13        500.000        6406.63     
  1826.92        500.000        6410.70     
  1823.72        500.000        6414.75     
  1820.51        500.000        6418.79     
  1817.31        500.000        6422.69     
  1814.10        500.000        6426.58     
  1810.90        500.000        6430.45     
  1807.69        500.000        6434.30     
  1804.49        500.000        6438.14     
  1801.28        500.000        6441.96     
  1798.08        500.000        6445.77     
  1794.87        500.000        6449.56     
  1791.67        500.000        6453.22     
  1788.46        500.000        6456.88     
  1785.26        500.000        6460.51     
  1782.05        500.000        6464.14     
  1778.85        500.000        6467.75     
  1775.64        500.000        6471.35     
  1772.44        500.000        6474.93     
  1769.23        500.000        6478.50     
  1766.03        500.000        6479.14     
  1762.82        500.000        6473.41     
  1759.62        500.000        6467.86     
  1756.41        500.000        6462.39     
  1753.21        500.000        6457.19     
  1750.00        500.000        6452.07     
  1746.79        500.000        6447.03     
  1743.59        500.000        6442.05     
  1740.38        500.000        6437.34     
  1737.18        500.000        6432.69     
  1733.97        500.000        6428.21     
  1730.77        500.000        5913.02     
  1727.56        500.000        5471.65     
  1724.36        500.000        5151.75     
  1721.15        500.000        4909.27     
  1717.95        500.000        4719.17     
  1714.74        500.000        4559.58     
  1711.54        500.000        4429.42     
  1708.33        500.000        4321.26     
  1705.13        500.000        4229.98     
  1701.92        500.000        4151.92     
  1698.72        500.000        4084.42     
  1695.51        500.000        4025.48     
  1692.31        500.000        3973.58     
  1689.10        500.000        3925.28     
  1685.90        500.000        3882.37     
  1682.69        500.000        3844.00     
  1679.49        500.000        3809.48     
  1676.28        500.000        3778.28     
  1673.08        500.000        3749.95     
  1669.87        500.000        3724.10     
  1666.67        500.000        3700.44     
  1663.46        500.000        3678.30     
  1660.26        500.000        3657.92     
  1657.05        500.000        3639.10     
  1653.85        500.000        3621.67     
  1650.64        500.000        3605.57     
  1647.44        500.000        3590.58     
  1644.23        500.000        3562.85     
  1641.03        500.000        3533.83     
  1637.82        500.000        3513.47     
  1634.62        500.000        3495.46     
  1631.41        500.000        3479.42     
  1628.21        500.000        3465.06     
  1625.00        500.000        3452.13     
  1621.79        500.000        3440.44     
  1618.59        500.000        3429.81     
  1615.38        500.000        3420.12     
  1612.18        500.000        3413.68     
  1608.97        500.000        3407.64     
  1605.77        500.000        3401.98     
  1602.56        500.000        3396.66     
  1599.36        500.000        3391.66     
  1596.15        500.000        3386.94     
  1592.95        500.000        3382.48     
  1589.74        500.000        3378.28     
  1586.54        500.000        3375.15     
  1583.33        500.000        3372.17     
  1580.13        500.000        3369.33     
  1576.92        500.000        3366.61     
  1573.72        500.000        3364.01     
  1570.51        500.000        3361.52     
  1567.31        500.000        3359.14     
  1564.10        500.000        3356.86     
  1560.90        500.000        3355.00     
  1557.69        500.000        3353.22     
  1554.49        500.000        3351.51     
  1551.28        500.000        3349.87     
  1548.08        500.000        3348.29     
  1544.87        500.000        3346.77     
  1541.67        500.000        3345.31     
  1538.46        500.000        3343.91     
  1535.26        500.000        3342.59     
  1532.05        500.000        3341.15     
  1528.85        500.000        3340.00     
  1525.64        500.000        3338.91     
  1522.44        500.000        3338.02     
  1519.23        500.000        3337.24     
  1516.03        500.000        3337.70     
  1512.82        500.000        3335.78     
  1509.62        500.000        3336.23     
  1506.41        500.000        3336.69     
  1503.21        500.000        3337.15     
  1500.00        500.000        3337.60     
  1496.79        500.000        3338.06     
  1493.59        500.000        3338.51     
  1490.38        500.000        3338.96     
  1487.18        500.000        3332.20     
  1483.97        500.000        3332.65     
  1480.77        500.000        3333.10     
  1477.56        500.000        3333.55     
  1474.36        500.000        3334.00     
  1471.15        500.000        3334.45     
  1467.95        500.000        3334.90     
  1464.74        500.000        3335.35     
  1461.54        500.000        3330.38     
  1458.33        500.000        3330.83     
  1455.13        500.000        3331.28     
  1451.92        500.000        3331.73     
  1448.72        500.000        3332.17     
  1445.51        500.000        3332.62     
  1442.31        500.000        3333.07     
  1439.10        500.000        3333.51     
  1435.90        500.000        3328.79     
  1432.69        500.000        3329.23     
  1429.49        500.000        3329.67     
  1426.28        500.000        3330.12     
  1423.08        500.000        3327.80     
  1419.87        500.000        3327.88     
  1416.67        500.000        3328.29     
  1413.46        500.000        3328.73     
  1410.26        500.000        3329.11     
  1407.05        500.000        3329.55     
  1403.85        500.000        3329.99     
  1400.64        500.000        3330.44     
  1397.44        500.000        3330.88     
  1394.23        500.000        3331.32     
  1391.03        500.000        3331.76     
  1387.82        500.000        3332.19     
  1384.62        500.000        3332.35     
  1381.41        500.000        3332.79     
  1378.21        500.000        3333.23     
  1375.00        500.000        3333.66     
  1371.79        500.000        3334.10     
  1368.59        500.000        3334.54     
  1365.38        500.000        3334.97     
  1362.18        500.000        3335.41     
  1358.97        500.000        3335.50     
  1355.77        500.000        3335.94     
  1352.56        500.000        3336.37     
  1349.36        500.000        3336.81     
  1346.15        500.000        3337.24     
  1342.95        500.000        3337.68     
  1339.74        500.000        3338.11     
  1336.54        500.000        3338.54     
  1333.33        500.000        3338.58     
  1330.13        500.000        3339.02     
  1326.92        500.000        3339.45     
  1323.72        500.000        3339.88     
  1320.51        500.000        3340.11     
  1317.31        500.000        3340.48     
  1314.10        500.000        3340.87     
  1310.90        500.000        3341.30     
  1307.69        500.000        3341.80     
  1304.49        500.000        3342.26     
  1301.28        500.000        3342.64     
  1298.08        500.000        3343.07     
  1294.87        500.000        3343.35     
  1291.67        500.000        3343.78     
  1288.46        500.000        3344.21     
  1285.26        500.000        3344.64     
  1282.05        500.000        3344.77     
  1278.85        500.000        3345.20     
  1275.64        500.000        3345.63     
  1272.44        500.000        3346.06     
  1269.23        500.000        3346.48     
  1266.03        500.000        3346.91     
  1262.82        500.000        3347.34     
  1259.62        500.000        3347.76     
  1256.41        500.000        3347.64     
  1253.21        500.000        3348.07     
  1250.00        500.000        3348.49     
  1246.79        500.000        3348.92     
  1243.59        500.000        3349.34     
  1240.38        500.000        3349.77     
  1237.18        500.000        3350.19     
  1233.97        500.000        3350.61     
  1230.77        500.000        3350.54     
  1227.56        500.000        3350.96     
  1224.36        500.000        3351.38     
  1221.15        500.000        3351.80     
  1217.95        500.000        3352.23     
  1214.74        500.000        3352.65     
  1211.54        500.000        3353.07     
  1208.33        500.000        3353.49     
  1205.13        500.000        3353.45     
  1201.92        500.000        3353.87     
  1198.72        500.000        3354.29     
  1195.51        500.000        3354.71     
  1192.31        500.000        3355.13     
  1189.10        500.000        3355.54     
  1185.90        500.000        3355.96     
  1182.69        500.000        3356.38     
  1179.49        500.000        3356.38     
  1176.28        500.000        3356.80     
  1173.08        500.000        3357.12     
  1169.87        500.000        3357.48     
  1166.67        500.000        3357.83     
  1163.46        500.000        3358.24     
  1160.26        500.000        3358.66     
  1157.05        500.000        3359.07     
  1153.85        500.000        3359.23     
  1150.64        500.000        3359.65     
  1147.44        500.000        3360.06     
  1144.23        500.000        3360.48     
  1141.03        500.000        3360.89     
  1137.82        500.000        3361.30     
  1134.62        500.000        3361.72     
  1131.41        500.000        3362.13     
  1128.21        500.000        3362.04     
  1125.00        500.000        3362.46     
  1121.79        500.000        3362.87     
  1118.59        500.000        3363.28     
  1115.38        500.000        3363.44     
  1112.18        500.000        3363.85     
  1108.97        500.000        3364.15     
  1105.77        500.000        3364.52     
  1102.56        500.000        3364.86     
  1099.36        500.000        3365.27     
  1096.15        500.000        3365.68     
  1092.95        500.000        3366.09     
  1089.74        500.000        3366.50     
  1086.54        500.000        3366.91     
  1083.33        500.000        3367.32     
  1080.13        500.000        3367.72     
  1076.92        500.000        3367.69     
  1073.72        500.000        3368.10     
  1070.51        500.000        3368.51     
  1067.31        500.000        3368.91     
  1064.10        500.000        3369.32     
  1060.90        500.000        3369.73     
  1057.69        500.000        3370.13     
  1054.49        500.000        3370.54     
  1051.28        500.000        3370.51     
  1048.08        500.000        3370.91     
  1044.87        500.000        3371.32     
  1041.67        500.000        3371.72     
  1038.46        500.000        3372.13     
  1035.26        500.000        3372.53     
  1032.05        500.000        3372.93     
  1028.85        500.000        3373.34     
  1025.64        500.000        3373.34     
  1022.44        500.000        3373.74     
  1019.23        500.000        3374.14     
  1016.03        500.000        3374.54     
  1012.82        500.000        3374.94     
  1009.62        500.000        3375.35     
  1006.41        500.000        3375.75     
  1003.21        500.000        3376.15     
  1000.00        500.000        3376.18     
