|6.6.6
Archiving\03_Data\fracLP/QFM_m2.25/KHA22/KHA22_6.tab                      
           1
T(K)    
  0.000000000000000E+000
  0.000000000000000E+000
           0
           3
T(K)           P(bar)         rho,kg/m3     
  2000.00        500.000        5145.98     
  1997.49        500.000        5146.73     
  1994.99        500.000        5147.49     
  1992.48        500.000        5148.24     
  1989.97        500.000        5149.00     
  1987.47        500.000        5149.75     
  1984.96        500.000        5150.50     
  1982.46        500.000        5151.26     
  1979.95        500.000        5152.01     
  1977.44        500.000        5152.76     
  1974.94        500.000        5153.51     
  1972.43        500.000        5154.26     
  1969.92        500.000        5155.01     
  1967.42        500.000        5155.76     
  1964.91        500.000        5156.51     
  1962.41        500.000        5157.26     
  1959.90        500.000        5158.01     
  1957.39        500.000        5158.76     
  1954.89        500.000        5159.51     
  1952.38        500.000        5160.26     
  1949.87        500.000        5161.00     
  1947.37        500.000        5161.75     
  1944.86        500.000        5162.50     
  1942.36        500.000        5163.24     
  1939.85        500.000        5163.99     
  1937.34        500.000        5164.74     
  1934.84        500.000        5165.48     
  1932.33        500.000        5166.22     
  1929.82        500.000        5166.97     
  1927.32        500.000        5167.71     
  1924.81        500.000        5168.46     
  1922.31        500.000        5169.20     
  1919.80        500.000        5169.94     
  1917.29        500.000        3707.24     
  1914.79        500.000        2880.44     
  1912.28        500.000        2881.01     
  1909.77        500.000        2881.57     
  1907.27        500.000        2882.14     
  1904.76        500.000        3132.39     
  1902.26        500.000        3134.02     
  1899.75        500.000        3135.23     
  1897.24        500.000        3137.12     
  1894.74        500.000        3138.00     
  1892.23        500.000        3139.67     
  1889.72        500.000        3141.00     
  1887.22        500.000        3142.57     
  1884.71        500.000        3144.91     
  1882.21        500.000        3145.30     
  1879.70        500.000        3147.48     
  1877.19        500.000        3148.38     
  1874.69        500.000        3150.10     
  1872.18        500.000        3151.24     
  1869.67        500.000        3152.94     
  1867.17        500.000        3154.42     
  1864.66        500.000        3155.75     
  1862.16        500.000        3167.85     
  1859.65        500.000        3182.10     
  1857.14        500.000        3183.86     
  1854.64        500.000        3184.73     
  1852.13        500.000        3186.42     
  1849.62        500.000        3188.17     
  1847.12        500.000        3189.06     
  1844.61        500.000        3191.16     
  1842.11        500.000        3192.85     
  1839.60        500.000        3194.56     
  1837.09        500.000        3195.97     
  1834.59        500.000        3196.97     
  1832.08        500.000        3198.85     
  1829.57        500.000        3200.67     
  1827.07        500.000        3202.24     
  1824.56        500.000        3203.38     
  1822.06        500.000        3205.69     
  1819.55        500.000        3206.85     
  1817.04        500.000        3208.47     
  1814.54        500.000        3188.12     
  1812.03        500.000        3211.38     
  1809.52        500.000        3213.35     
  1807.02        500.000        3214.36     
  1804.51        500.000        3216.70     
  1802.01        500.000        3218.11     
  1799.50        500.000        3219.06     
  1796.99        500.000        3220.59     
  1794.49        500.000        3222.54     
  1791.98        500.000        3223.32     
  1789.47        500.000        3225.12     
  1786.97        500.000        3225.98     
  1784.46        500.000        3228.59     
  1781.95        500.000        3230.07     
  1779.45        500.000        3231.27     
  1776.94        500.000        3232.97     
  1774.44        500.000        3234.32     
  1771.93        500.000        3236.07     
  1769.42        500.000        3237.24     
  1766.92        500.000        3239.82     
  1764.41        500.000        3240.95     
  1761.90        500.000        3241.74     
  1759.40        500.000        3247.01     
  1756.89        500.000        3222.90     
  1754.39        500.000        3244.67     
  1751.88        500.000        3247.77     
  1749.37        500.000        3250.48     
  1746.87        500.000        3251.50     
  1744.36        500.000        3252.34     
  1741.85        500.000        3253.97     
  1739.35        500.000        3256.13     
  1736.84        500.000        3257.36     
  1734.34        500.000        3258.93     
  1731.83        500.000        3260.58     
  1729.32        500.000        3262.42     
  1726.82        500.000        3263.77     
  1724.31        500.000        3265.51     
  1721.80        500.000        3266.49     
  1719.30        500.000        3267.97     
  1716.79        500.000        3269.47     
  1714.29        500.000        3271.19     
  1711.78        500.000        3272.20     
  1709.27        500.000        3273.99     
  1706.77        500.000        3275.75     
  1704.26        500.000        3277.18     
  1701.75        500.000        3278.67     
  1699.25        500.000        3281.14     
  1696.74        500.000        3281.98     
  1694.24        500.000        3283.06     
  1691.73        500.000        3284.65     
  1689.22        500.000        3285.97     
  1686.72        500.000        3287.45     
  1684.21        500.000        3289.25     
  1681.70        500.000        3290.69     
  1679.20        500.000        3291.89     
  1676.69        500.000        3293.23     
  1674.19        500.000        3294.70     
  1671.68        500.000        3295.90     
  1669.17        500.000        3297.69     
  1666.67        500.000        3298.52     
  1664.16        500.000        3299.52     
  1661.65        500.000        3301.20     
  1659.15        500.000        3303.23     
  1656.64        500.000        3304.62     
  1654.14        500.000        3306.47     
  1651.63        500.000        3307.58     
  1649.12        500.000        3310.21     
  1646.62        500.000        3317.87     
  1644.11        500.000        3311.48     
  1641.60        500.000        3312.28     
  1639.10        500.000        3313.56     
  1636.59        500.000        3315.76     
  1634.09        500.000        3316.87     
  1631.58        500.000        3318.38     
  1629.07        500.000        3319.86     
  1626.57        500.000        3321.81     
  1624.06        500.000        3322.67     
  1621.55        500.000        3322.88     
  1619.05        500.000        3324.38     
  1616.54        500.000        3326.55     
  1614.04        500.000        3329.08     
  1611.53        500.000        3328.85     
  1609.02        500.000        3329.16     
  1606.52        500.000        3331.71     
  1604.01        500.000        3334.57     
  1601.50        500.000        3333.95     
  1599.00        500.000        3335.32     
  1596.49        500.000        3336.80     
  1593.98        500.000        3338.49     
  1591.48        500.000        3251.70     
  1588.97        500.000        3236.62     
  1586.47        500.000        3237.51     
  1583.96        500.000        3238.01     
  1581.45        500.000        3239.32     
  1578.95        500.000        3237.34     
  1576.44        500.000        3241.01     
  1573.93        500.000        3241.05     
  1571.43        500.000        3243.06     
  1568.92        500.000        3243.02     
  1566.42        500.000        3243.57     
  1563.91        500.000        3243.98     
  1561.40        500.000        3245.02     
  1558.90        500.000        3245.93     
  1556.39        500.000        3245.78     
  1553.88        500.000        3247.19     
  1551.38        500.000        3247.97     
  1548.87        500.000        3248.38     
  1546.37        500.000        3249.34     
  1543.86        500.000        3250.00     
  1541.35        500.000        3251.09     
  1538.85        500.000        3252.48     
  1536.34        500.000        3249.82     
  1533.83        500.000        3251.57     
  1531.33        500.000        3253.14     
  1528.82        500.000        3253.93     
  1526.32        500.000        3255.00     
  1523.81        500.000        3266.68     
  1521.30        500.000        3256.00     
  1518.80        500.000        3256.03     
  1516.29        500.000        3257.41     
  1513.78        500.000        3257.91     
  1511.28        500.000        3258.83     
  1508.77        500.000        3259.46     
  1506.27        500.000        3261.20     
  1503.76        500.000        3261.42     
  1501.25        500.000        3262.66     
  1498.75        500.000        3263.18     
  1496.24        500.000        3268.69     
  1493.73        500.000        3265.04     
  1491.23        500.000        3265.52     
  1488.72        500.000        3266.98     
  1486.22        500.000        3267.44     
  1483.71        500.000        3269.33     
  1481.20        500.000        3269.77     
  1478.70        500.000        3270.30     
  1476.19        500.000        3271.63     
  1473.68        500.000        3269.87     
  1471.18        500.000        3258.48     
  1468.67        500.000        3259.46     
  1466.17        500.000        3260.64     
  1463.66        500.000        3262.64     
  1461.15        500.000        3262.80     
  1458.65        500.000        3264.82     
  1456.14        500.000        3266.38     
  1453.63        500.000        3267.34     
  1451.13        500.000        3269.02     
  1448.62        500.000        3270.71     
  1446.12        500.000        3272.91     
  1443.61        500.000        3273.24     
  1441.10        500.000        3275.21     
  1438.60        500.000        3275.67     
  1436.09        500.000        3277.30     
  1433.58        500.000        3262.26     
  1431.08        500.000        3262.00     
  1428.57        500.000        3263.86     
  1426.07        500.000        3265.38     
  1423.56        500.000        3267.25     
  1421.05        500.000        3269.13     
  1418.55        500.000        3266.19     
  1416.04        500.000        3278.14     
  1413.53        500.000        3274.48     
  1411.03        500.000        3273.76     
  1408.52        500.000        3097.35     
  1406.02        500.000        3099.59     
  1403.51        500.000        3101.41     
  1401.00        500.000        3103.30     
  1398.50        500.000        3105.36     
  1395.99        500.000        3107.48     
  1393.48        500.000        3109.35     
  1390.98        500.000        3111.07     
  1388.47        500.000        3113.12     
  1385.96        500.000        3115.04     
  1383.46        500.000        3117.21     
  1380.95        500.000        3119.22     
  1378.45        500.000        3121.17     
  1375.94        500.000        3123.11     
  1373.43        500.000        3125.04     
  1370.93        500.000        3127.05     
  1368.42        500.000        3129.02     
  1365.91        500.000        3130.89     
  1363.41        500.000        3133.06     
  1360.90        500.000        3134.96     
  1358.40        500.000        3136.84     
  1355.89        500.000        3138.87     
  1353.38        500.000        3140.94     
  1350.88        500.000        3143.33     
  1348.37        500.000        3145.28     
  1345.86        500.000        3147.17     
  1343.36        500.000        3149.29     
  1340.85        500.000        3151.41     
  1338.35        500.000        3152.97     
  1335.84        500.000        3155.32     
  1333.33        500.000        3157.19     
  1330.83        500.000        3159.31     
  1328.32        500.000        3161.41     
  1325.81        500.000        3163.14     
  1323.31        500.000        3164.78     
  1320.80        500.000        3179.17     
  1318.30        500.000        3196.58     
  1315.79        500.000        3199.23     
  1313.28        500.000        3201.47     
  1310.78        500.000        3203.94     
  1308.27        500.000        3206.49     
  1305.76        500.000        3208.56     
  1303.26        500.000        3210.91     
  1300.75        500.000        3213.17     
  1298.25        500.000        3215.12     
  1295.74        500.000        3217.22     
  1293.23        500.000        3219.22     
  1290.73        500.000        3221.14     
  1288.22        500.000        2769.81     
  1285.71        500.000        2771.53     
  1283.21        500.000        2776.18     
  1280.70        500.000        2780.41     
  1278.20        500.000        2784.35     
  1275.69        500.000        2787.95     
  1273.18        500.000        2791.43     
  1270.68        500.000        2794.65     
  1268.17        500.000        2797.72     
  1265.66        500.000        2800.38     
  1263.16        500.000        2803.38     
  1260.65        500.000        2805.63     
  1258.15        500.000        2751.74     
  1255.64        500.000        2867.51     
  1253.13        500.000        2813.14     
  1250.63        500.000        2815.25     
  1248.12        500.000        2817.52     
  1245.61        500.000        2819.69     
  1243.11        500.000        2821.54     
  1240.60        500.000        2823.68     
  1238.10        500.000        2825.41     
  1235.59        500.000        2827.17     
  1233.08        500.000        2828.58     
  1230.58        500.000        2830.74     
  1228.07        500.000        2832.42     
  1225.56        500.000        2833.77     
  1223.06        500.000        2835.24     
  1220.55        500.000        2837.05     
  1218.05        500.000        2842.05     
  1215.54        500.000        2841.76     
  1213.03        500.000        2841.72     
  1210.53        500.000        2841.49     
  1208.02        500.000        2824.27     
  1205.51        500.000        2679.31     
  1203.01        500.000        2681.45     
  1200.50        500.000        2677.48     
  1197.99        500.000        2668.38     
  1195.49        500.000        2672.37     
  1192.98        500.000        2663.16     
  1190.48        500.000        2654.75     
  1187.97        500.000        2635.42     
  1185.46        500.000        2635.53     
  1182.96        500.000        2635.70     
  1180.45        500.000        2635.80     
  1177.94        500.000        2635.89     
  1175.44        500.000        2635.99     
  1172.93        500.000        2636.09     
  1170.43        500.000        2636.19     
  1167.92        500.000        2636.38     
  1165.41        500.000        2636.41     
  1162.91        500.000        2636.53     
  1160.40        500.000        2636.64     
  1157.89        500.000        2636.75     
  1155.39        500.000        2636.86     
  1152.88        500.000        2636.97     
  1150.38        500.000        2637.09     
  1147.87        500.000        2637.20     
  1145.36        500.000        2637.32     
  1142.86        500.000        2637.47     
  1140.35        500.000        2637.60     
  1137.84        500.000        2637.71     
  1135.34        500.000        2637.78     
  1132.83        500.000        2637.92     
  1130.33        500.000        2638.03     
  1127.82        500.000        2638.14     
  1125.31        500.000        2636.72     
  1122.81        500.000        2635.69     
  1120.30        500.000        2635.61     
  1117.79        500.000        2635.66     
  1115.29        500.000        2635.95     
  1112.78        500.000        2635.68     
  1110.28        500.000        2635.57     
  1107.77        500.000        2636.16     
  1105.26        500.000        2635.74     
  1102.76        500.000        2635.77     
  1100.25        500.000        2635.82     
  1097.74        500.000        2635.82     
  1095.24        500.000        2635.99     
  1092.73        500.000        2635.99     
  1090.23        500.000        2635.92     
  1087.72        500.000        2635.98     
  1085.21        500.000        2636.04     
  1082.71        500.000        2636.18     
  1080.20        500.000        2636.16     
  1077.69        500.000        2636.23     
  1075.19        500.000        2636.44     
  1072.68        500.000        2636.47     
  1070.18        500.000        2636.48     
  1067.67        500.000        2636.66     
  1065.16        500.000        2636.73     
  1062.66        500.000        2636.80     
  1060.15        500.000        2636.89     
  1057.64        500.000        2636.96     
  1055.14        500.000        2637.03     
  1052.63        500.000        2637.11     
  1050.13        500.000        2637.18     
  1047.62        500.000        2637.26     
  1045.11        500.000        2637.35     
  1042.61        500.000        2637.43     
  1040.10        500.000        2637.51     
  1037.59        500.000        2637.60     
  1035.09        500.000        2637.68     
  1032.58        500.000        2637.76     
  1030.08        500.000        2637.85     
  1027.57        500.000        2637.93     
  1025.06        500.000        2638.01     
  1022.56        500.000        2638.10     
  1020.05        500.000        2638.19     
  1017.54        500.000        2638.25     
  1015.04        500.000        2638.35     
  1012.53        500.000        2638.44     
  1010.03        500.000        2638.30     
  1007.52        500.000        2638.61     
  1005.01        500.000        2638.65     
  1002.51        500.000        2638.69     
  1000.00        500.000        2638.80     
