|6.6.6
Archiving\03_Data\Deq/QFM_m3/YM20/YM20_6.tab                            
           1
T(K)    
  0.000000000000000E+000
  0.000000000000000E+000
           0
           3
T(K)           P(bar)         rho,kg/m3     
  2000.00        2500.00        8112.42     
  1996.79        2500.00        8114.24     
  1993.59        2500.00        8116.06     
  1990.38        2500.00        8117.88     
  1987.18        2500.00        8119.70     
  1983.97        2500.00        8121.52     
  1980.77        2500.00        8123.33     
  1977.56        2500.00        8125.14     
  1974.36        2500.00        8126.96     
  1971.15        2500.00        8128.77     
  1967.95        2500.00        8130.57     
  1964.74        2500.00        8132.38     
  1961.54        2500.00        8134.19     
  1958.33        2500.00        8135.99     
  1955.13        2500.00        8137.79     
  1951.92        2500.00        8139.60     
  1948.72        2500.00        8141.40     
  1945.51        2500.00        8143.19     
  1942.31        2500.00        8144.99     
  1939.10        2500.00        8146.79     
  1935.90        2500.00        8148.58     
  1932.69        2500.00        8150.37     
  1929.49        2500.00        8152.16     
  1926.28        2500.00        3242.19     
  1923.08        2500.00        3195.26     
  1919.87        2500.00        3183.14     
  1916.67        2500.00        3177.27     
  1913.46        2500.00        3173.91     
  1910.26        2500.00        3171.83     
  1907.05        2500.00        3171.90     
  1903.85        2500.00        3172.88     
  1900.64        2500.00        3174.50     
  1897.44        2500.00        3177.64     
  1894.23        2500.00        3181.06     
  1891.03        2500.00        3184.05     
  1887.82        2500.00        3186.69     
  1884.62        2500.00        3189.05     
  1881.41        2500.00        3191.18     
  1878.21        2500.00        3193.11     
  1875.00        2500.00        3194.89     
  1871.79        2500.00        3196.54     
  1868.59        2500.00        3199.16     
  1865.38        2500.00        3201.59     
  1862.18        2500.00        3203.85     
  1858.97        2500.00        3205.97     
  1855.77        2500.00        3207.95     
  1852.56        2500.00        3209.82     
  1849.36        2500.00        3211.58     
  1846.15        2500.00        3213.25     
  1842.95        2500.00        3215.52     
  1839.74        2500.00        3217.68     
  1836.54        2500.00        3219.74     
  1833.33        2500.00        3221.70     
  1830.13        2500.00        3223.57     
  1826.92        2500.00        3225.37     
  1823.72        2500.00        3227.10     
  1820.51        2500.00        3228.75     
  1817.31        2500.00        3230.85     
  1814.10        2500.00        3232.87     
  1810.90        2500.00        3234.81     
  1807.69        2500.00        3236.69     
  1804.49        2500.00        3238.50     
  1801.28        2500.00        3240.26     
  1798.08        2500.00        3241.95     
  1794.87        2500.00        3243.60     
  1791.67        2500.00        3245.50     
  1788.46        2500.00        3247.35     
  1785.26        2500.00        3249.14     
  1782.05        2500.00        3250.89     
  1778.85        2500.00        3252.59     
  1775.64        2500.00        3254.24     
  1772.44        2500.00        3255.85     
  1769.23        2500.00        3257.43     
  1766.03        2500.00        3259.16     
  1762.82        2500.00        3260.85     
  1759.62        2500.00        3262.50     
  1756.41        2500.00        3264.12     
  1753.21        2500.00        3265.70     
  1750.00        2500.00        3267.25     
  1746.79        2500.00        3268.76     
  1743.59        2500.00        3270.24     
  1740.38        2500.00        3271.77     
  1737.18        2500.00        3273.28     
  1733.97        2500.00        3274.75     
  1730.77        2500.00        3276.19     
  1727.56        2500.00        3277.62     
  1724.36        2500.00        3279.01     
  1721.15        2500.00        3280.38     
  1717.95        2500.00        3281.73     
  1714.74        2500.00        3283.09     
  1711.54        2500.00        3284.42     
  1708.33        2500.00        3285.74     
  1705.13        2500.00        3287.03     
  1701.92        2500.00        3288.31     
  1698.72        2500.00        3289.56     
  1695.51        2500.00        3290.80     
  1692.31        2500.00        3292.03     
  1689.10        2500.00        3293.19     
  1685.90        2500.00        3294.35     
  1682.69        2500.00        3295.49     
  1679.49        2500.00        3296.62     
  1676.28        2500.00        3297.73     
  1673.08        2500.00        3298.83     
  1669.87        2500.00        3299.92     
  1666.67        2500.00        3301.00     
  1663.46        2500.00        3302.04     
  1660.26        2500.00        3303.08     
  1657.05        2500.00        3304.08     
  1653.85        2500.00        3303.16     
  1650.64        2500.00        3302.04     
  1647.44        2500.00        3301.00     
  1644.23        2500.00        3300.03     
  1641.03        2500.00        3299.12     
  1637.82        2500.00        3298.65     
  1634.62        2500.00        3298.21     
  1631.41        2500.00        3297.80     
  1628.21        2500.00        3297.41     
  1625.00        2500.00        3297.06     
  1621.79        2500.00        3296.73     
  1618.59        2500.00        3296.43     
  1615.38        2500.00        3296.15     
  1612.18        2500.00        3296.14     
  1608.97        2500.00        3296.14     
  1605.77        2500.00        3296.15     
  1602.56        2500.00        3296.17     
  1599.36        2500.00        3296.19     
  1596.15        2500.00        3296.23     
  1592.95        2500.00        3296.28     
  1589.74        2500.00        3296.34     
  1586.54        2500.00        3296.51     
  1583.33        2500.00        3296.69     
  1580.13        2500.00        3296.88     
  1576.92        2500.00        3297.07     
  1573.72        2500.00        3297.26     
  1570.51        2500.00        3297.46     
  1567.31        2500.00        3297.67     
  1564.10        2500.00        3297.87     
  1560.90        2500.00        3298.13     
  1557.69        2500.00        3298.39     
  1554.49        2500.00        3298.66     
  1551.28        2500.00        3298.93     
  1548.08        2500.00        3299.20     
  1544.87        2500.00        3299.47     
  1541.67        2500.00        3299.75     
  1538.46        2500.00        3300.02     
  1535.26        2500.00        3300.32     
  1532.05        2500.00        3300.62     
  1528.85        2500.00        3300.92     
  1525.64        2500.00        3301.23     
  1522.44        2500.00        3301.53     
  1519.23        2500.00        3301.84     
  1516.03        2500.00        3302.15     
  1512.82        2500.00        3302.47     
  1509.62        2500.00        3302.80     
  1506.41        2500.00        3303.13     
  1503.21        2500.00        3303.49     
  1500.00        2500.00        3303.93     
  1496.79        2500.00        3304.41     
  1493.59        2500.00        3304.89     
  1490.38        2500.00        3305.36     
  1487.18        2500.00        3305.84     
  1483.97        2500.00        3306.34     
  1480.77        2500.00        3306.84     
  1477.56        2500.00        3307.34     
  1474.36        2500.00        3307.83     
  1471.15        2500.00        3308.27     
  1467.95        2500.00        3308.71     
  1464.74        2500.00        3309.15     
  1461.54        2500.00        3309.79     
  1458.33        2500.00        3310.23     
  1455.13        2500.00        3310.67     
  1451.92        2500.00        3311.11     
  1448.72        2500.00        3311.69     
  1445.51        2500.00        3311.22     
  1442.31        2500.00        3310.61     
  1439.10        2500.00        3311.05     
  1435.90        2500.00        3309.63     
  1432.69        2500.00        3310.07     
  1429.49        2500.00        3310.50     
  1426.28        2500.00        3310.94     
  1423.08        2500.00        3311.37     
  1419.87        2500.00        3311.80     
  1416.67        2500.00        3312.24     
  1413.46        2500.00        3312.67     
  1410.26        2500.00        3307.63     
  1407.05        2500.00        3308.06     
  1403.85        2500.00        3308.49     
  1400.64        2500.00        3308.92     
  1397.44        2500.00        3309.34     
  1394.23        2500.00        3309.77     
  1391.03        2500.00        3310.20     
  1387.82        2500.00        3310.63     
  1384.62        2500.00        3307.06     
  1381.41        2500.00        3307.49     
  1378.21        2500.00        3307.91     
  1375.00        2500.00        3308.34     
  1371.79        2500.00        3308.76     
  1368.59        2500.00        3309.19     
  1365.38        2500.00        3309.61     
  1362.18        2500.00        3310.04     
  1358.97        2500.00        3307.16     
  1355.77        2500.00        3307.58     
  1352.56        2500.00        3308.00     
  1349.36        2500.00        3308.42     
  1346.15        2500.00        3308.84     
  1342.95        2500.00        3309.27     
  1339.74        2500.00        3309.69     
  1336.54        2500.00        3310.11     
  1333.33        2500.00        3307.70     
  1330.13        2500.00        3308.12     
  1326.92        2500.00        3307.89     
  1323.72        2500.00        3308.00     
  1320.51        2500.00        3307.44     
  1317.31        2500.00        3307.85     
  1314.10        2500.00        3308.27     
  1310.90        2500.00        3308.68     
  1307.69        2500.00        3308.78     
  1304.49        2500.00        3309.19     
  1301.28        2500.00        3309.61     
  1298.08        2500.00        3310.02     
  1294.87        2500.00        3310.44     
  1291.67        2500.00        3310.85     
  1288.46        2500.00        3311.27     
  1285.26        2500.00        3311.68     
  1282.05        2500.00        3311.50     
  1278.85        2500.00        3311.92     
  1275.64        2500.00        3312.33     
  1272.44        2500.00        3312.74     
  1269.23        2500.00        3313.16     
  1266.03        2500.00        3313.57     
  1262.82        2500.00        3313.98     
  1259.62        2500.00        3314.39     
  1256.41        2500.00        3314.29     
  1253.21        2500.00        3314.71     
  1250.00        2500.00        3315.12     
  1246.79        2500.00        3315.53     
  1243.59        2500.00        3315.94     
  1240.38        2500.00        3316.35     
  1237.18        2500.00        3316.76     
  1233.97        2500.00        3317.16     
  1230.77        2500.00        3317.13     
  1227.56        2500.00        3317.54     
  1224.36        2500.00        3317.94     
  1221.15        2500.00        3318.35     
  1217.95        2500.00        3318.76     
  1214.74        2500.00        3319.17     
  1211.54        2500.00        3319.57     
  1208.33        2500.00        3319.98     
  1205.13        2500.00        3320.02     
  1201.92        2500.00        3320.43     
  1198.72        2500.00        3320.83     
  1195.51        2500.00        3321.24     
  1192.31        2500.00        3321.65     
  1189.10        2500.00        3322.05     
  1185.90        2500.00        3322.46     
  1182.69        2500.00        3322.86     
  1179.49        2500.00        3322.97     
  1176.28        2500.00        3323.37     
  1173.08        2500.00        3323.77     
  1169.87        2500.00        3324.18     
  1166.67        2500.00        3324.58     
  1163.46        2500.00        3324.98     
  1160.26        2500.00        3325.39     
  1157.05        2500.00        3325.79     
  1153.85        2500.00        3325.97     
  1150.64        2500.00        3326.37     
  1147.44        2500.00        3326.77     
  1144.23        2500.00        3327.17     
  1141.03        2500.00        3327.58     
  1137.82        2500.00        3327.98     
  1134.62        2500.00        3328.38     
  1131.41        2500.00        3328.78     
  1128.21        2500.00        3329.03     
  1125.00        2500.00        3329.43     
  1121.79        2500.00        3329.83     
  1118.59        2500.00        3330.23     
  1115.38        2500.00        3330.63     
  1112.18        2500.00        3331.03     
  1108.97        2500.00        3331.43     
  1105.77        2500.00        3331.83     
  1102.56        2500.00        3332.17     
  1099.36        2500.00        3332.56     
  1096.15        2500.00        3332.96     
  1092.95        2500.00        3333.36     
  1089.74        2500.00        3333.76     
  1086.54        2500.00        3334.15     
  1083.33        2500.00        3334.55     
  1080.13        2500.00        3334.94     
  1076.92        2500.00        3335.37     
  1073.72        2500.00        3335.77     
  1070.51        2500.00        3336.18     
  1067.31        2500.00        3336.59     
  1064.10        2500.00        3337.00     
  1060.90        2500.00        3337.40     
  1057.69        2500.00        3337.79     
  1054.49        2500.00        3338.19     
  1051.28        2500.00        3338.62     
  1048.08        2500.00        3339.01     
  1044.87        2500.00        3339.41     
  1041.67        2500.00        3339.80     
  1038.46        2500.00        3340.19     
  1035.26        2500.00        3340.59     
  1032.05        2500.00        3340.98     
  1028.85        2500.00        3341.37     
  1025.64        2500.00        3341.92     
  1022.44        2500.00        3342.31     
  1019.23        2500.00        3342.70     
  1016.03        2500.00        3343.09     
  1012.82        2500.00        3343.48     
  1009.62        2500.00        3343.87     
  1006.41        2500.00        3344.26     
  1003.21        2500.00        3344.65     
  1000.00        2500.00        3345.29     
