|6.6.6
Archiving\03_Data\eqfracLP/QFM_m4/KHA22/KHA22_6.tab                       
           1
T(K)    
  0.000000000000000E+000
  0.000000000000000E+000
           0
           3
T(K)           P(bar)         rho,kg/m3     
  1554.49        500.000        3241.72     
  1553.10        500.000        3215.72     
  1551.71        500.000        3216.47     
  1550.32        500.000        3216.54     
  1548.93        500.000        3216.47     
  1547.54        500.000        3218.01     
  1546.15        500.000        3227.69     
  1544.76        500.000        3218.17     
  1543.37        500.000        3218.06     
  1541.98        500.000        3224.92     
  1540.59        500.000        3218.29     
  1539.20        500.000        3220.40     
  1537.81        500.000        3218.32     
  1536.42        500.000        3219.64     
  1535.03        500.000        3223.39     
  1533.64        500.000        3220.77     
  1532.25        500.000        3220.05     
  1530.87        500.000        3220.31     
  1529.48        500.000        3221.17     
  1528.09        500.000        3221.78     
  1526.70        500.000        3224.53     
  1525.31        500.000        3221.85     
  1523.92        500.000        3221.57     
  1522.53        500.000        3221.84     
  1521.14        500.000        3225.72     
  1519.75        500.000        3222.74     
  1518.36        500.000        3223.17     
  1516.97        500.000        3225.64     
  1515.58        500.000        3227.40     
  1514.19        500.000        3224.93     
  1512.80        500.000        3223.93     
  1511.41        500.000        3225.00     
  1510.02        500.000        3225.00     
  1508.63        500.000        3225.27     
  1507.24        500.000        3231.85     
  1505.85        500.000        3225.53     
  1504.46        500.000        3225.90     
  1503.07        500.000        3225.89     
  1501.68        500.000        3226.55     
  1500.29        500.000        3226.69     
  1498.90        500.000        3227.00     
  1497.51        500.000        3229.56     
  1496.12        500.000        3227.65     
  1494.73        500.000        3227.81     
  1493.34        500.000        3228.37     
  1491.95        500.000        3228.63     
  1490.56        500.000        3228.91     
  1489.17        500.000        3233.02     
  1487.78        500.000        3229.06     
  1486.39        500.000        3228.72     
  1485.01        500.000        3229.59     
  1483.62        500.000        3230.44     
  1482.23        500.000        3231.11     
  1480.84        500.000        3231.40     
  1479.45        500.000        3231.48     
  1478.06        500.000        3231.87     
  1476.67        500.000        3228.58     
  1475.28        500.000        3224.34     
  1473.89        500.000        3218.64     
  1472.50        500.000        3217.44     
  1471.11        500.000        3218.25     
  1469.72        500.000        3218.30     
  1468.33        500.000        3232.25     
  1466.94        500.000        3219.60     
  1465.55        500.000        3220.26     
  1464.16        500.000        3228.83     
  1462.77        500.000        3221.53     
  1461.38        500.000        3222.65     
  1459.99        500.000        3222.71     
  1458.60        500.000        3223.47     
  1457.21        500.000        3224.25     
  1455.82        500.000        3224.50     
  1454.43        500.000        3226.30     
  1453.04        500.000        3223.73     
  1451.65        500.000        3219.14     
  1450.26        500.000        3219.89     
  1448.87        500.000        3220.59     
  1447.48        500.000        3221.01     
  1446.09        500.000        3221.89     
  1444.70        500.000        3222.81     
  1443.31        500.000        3223.57     
  1441.92        500.000        3224.22     
  1440.53        500.000        3225.37     
  1439.14        500.000        3225.96     
  1437.76        500.000        3226.99     
  1436.37        500.000        3227.29     
  1434.98        500.000        3228.52     
  1433.59        500.000        3228.96     
  1432.20        500.000        3230.07     
  1430.81        500.000        3230.95     
  1429.42        500.000        3231.43     
  1428.03        500.000        3232.41     
  1426.64        500.000        3233.12     
  1425.25        500.000        3234.31     
  1423.86        500.000        3234.92     
  1422.47        500.000        3235.69     
  1421.08        500.000        3082.18     
  1419.69        500.000        3068.57     
  1418.30        500.000        3069.24     
  1416.91        500.000        3070.15     
  1415.52        500.000        3070.93     
  1414.13        500.000        3071.83     
  1412.74        500.000        3072.53     
  1411.35        500.000        3073.45     
  1409.96        500.000        3074.33     
  1408.57        500.000        3074.99     
  1407.18        500.000        3075.71     
  1405.79        500.000        3076.40     
  1404.40        500.000        3077.50     
  1403.01        500.000        3078.14     
  1401.62        500.000        3078.71     
  1400.23        500.000        3079.69     
  1398.84        500.000        3080.45     
  1397.45        500.000        3081.19     
  1396.06        500.000        3082.06     
  1394.67        500.000        3082.85     
  1393.28        500.000        3083.48     
  1391.90        500.000        3084.58     
  1390.51        500.000        3085.19     
  1389.12        500.000        3085.98     
  1387.73        500.000        3086.80     
  1386.34        500.000        3087.49     
  1384.95        500.000        3088.17     
  1383.56        500.000        3089.15     
  1382.17        500.000        3090.08     
  1380.78        500.000        3090.82     
  1379.39        500.000        3091.64     
  1378.00        500.000        3092.23     
  1376.61        500.000        3093.14     
  1375.22        500.000        3094.01     
  1373.83        500.000        3094.75     
  1372.44        500.000        3095.49     
  1371.05        500.000        3096.48     
  1369.66        500.000        3097.13     
  1368.27        500.000        3097.92     
  1366.88        500.000        3098.71     
  1365.49        500.000        3099.66     
  1364.10        500.000        3100.62     
  1362.71        500.000        3101.15     
  1361.32        500.000        3101.88     
  1359.93        500.000        3102.80     
  1358.54        500.000        3103.57     
  1357.15        500.000        3104.55     
  1355.76        500.000        3105.01     
  1354.37        500.000        3105.91     
  1352.98        500.000        3106.91     
  1351.59        500.000        3107.40     
  1350.20        500.000        3108.50     
  1348.81        500.000        3109.29     
  1347.42        500.000        3109.99     
  1346.04        500.000        3110.93     
  1344.65        500.000        3111.66     
  1343.26        500.000        3112.60     
  1341.87        500.000        3113.33     
  1340.48        500.000        3114.02     
  1339.09        500.000        3114.88     
  1337.70        500.000        3115.66     
  1336.31        500.000        3116.50     
  1334.92        500.000        3117.48     
  1333.53        500.000        3118.08     
  1332.14        500.000        3118.98     
  1330.75        500.000        3119.58     
  1329.36        500.000        3120.54     
  1327.97        500.000        3121.41     
  1326.58        500.000        3122.30     
  1325.19        500.000        3122.94     
  1323.80        500.000        3123.87     
  1322.41        500.000        3124.57     
  1321.02        500.000        3125.40     
  1319.63        500.000        3126.15     
  1318.24        500.000        3127.14     
  1316.85        500.000        3127.87     
  1315.46        500.000        3128.49     
  1314.07        500.000        3129.41     
  1312.68        500.000        3130.15     
  1311.29        500.000        3131.23     
  1309.90        500.000        3131.92     
  1308.51        500.000        3132.58     
  1307.12        500.000        3133.53     
  1305.73        500.000        3134.12     
  1304.34        500.000        3135.25     
  1302.95        500.000        3135.73     
  1301.56        500.000        3136.93     
  1300.18        500.000        3137.49     
  1298.79        500.000        3138.29     
  1297.40        500.000        2737.30     
  1296.01        500.000        2737.10     
  1294.62        500.000        2739.25     
  1293.23        500.000        2741.14     
  1291.84        500.000        2742.86     
  1290.45        500.000        2744.52     
  1289.06        500.000        2745.86     
  1287.67        500.000        2747.12     
  1286.28        500.000        2748.17     
  1284.89        500.000        2749.50     
  1283.50        500.000        2750.42     
  1282.11        500.000        2751.38     
  1280.72        500.000        2752.10     
  1279.33        500.000        2752.85     
  1277.94        500.000        2753.63     
  1276.55        500.000        2754.23     
  1275.16        500.000        2754.84     
  1273.77        500.000        2755.54     
  1272.38        500.000        2755.90     
  1270.99        500.000        2756.30     
  1269.60        500.000        2756.76     
  1268.21        500.000        2756.95     
  1266.82        500.000        2757.32     
  1265.43        500.000        2757.75     
  1264.04        500.000        2758.04     
  1262.65        500.000        2758.18     
  1261.26        500.000        2758.63     
  1259.87        500.000        2758.70     
  1258.48        500.000        2759.01     
  1257.09        500.000        2759.31     
  1255.70        500.000        2759.06     
  1254.31        500.000        2759.81     
  1252.93        500.000        2759.61     
  1251.54        500.000        2759.80     
  1250.15        500.000        2759.98     
  1248.76        500.000        2760.12     
  1247.37        500.000        2760.10     
  1245.98        500.000        2760.21     
  1244.59        500.000        2760.26     
  1243.20        500.000        2760.52     
  1241.81        500.000        2760.68     
  1240.42        500.000        2760.33     
  1239.03        500.000        2760.67     
  1237.64        500.000        2760.66     
  1236.25        500.000        2760.71     
  1234.86        500.000        2760.66     
  1233.47        500.000        2761.01     
  1232.08        500.000        2760.99     
  1230.69        500.000        2679.18     
  1229.30        500.000        2773.68     
  1227.91        500.000        2564.71     
  1226.52        500.000        2799.42     
  1225.13        500.000        2716.14     
  1223.74        500.000        2716.28     
  1222.35        500.000        2681.50     
  1220.96        500.000        2675.00     
  1219.57        500.000        2669.79     
  1218.18        500.000        2664.95     
  1216.79        500.000        2658.36     
  1215.40        500.000        3317.75     
  1214.01        500.000        3107.82     
  1212.62        500.000        2526.58     
  1211.23        500.000        2563.09     
  1209.84        500.000        2535.74     
  1208.45        500.000        2629.45     
  1207.07        500.000        2903.96     
  1205.68        500.000        3126.79     
  1204.29        500.000        2569.91     
  1202.90        500.000        3379.60     
  1201.51        500.000        2579.46     
  1200.12        500.000        2620.43     
  1198.73        500.000        2643.31     
  1197.34        500.000        2627.97     
  1195.95        500.000        2620.58     
  1194.56        500.000        2616.65     
  1193.17        500.000        2608.83     
  1191.78        500.000        2619.30     
  1190.39        500.000        2621.81     
  1189.00        500.000        2621.87     
  1187.61        500.000        2621.93     
  1186.22        500.000        2621.99     
  1184.83        500.000        2622.05     
  1183.44        500.000        2622.11     
  1182.05        500.000        2622.17     
  1180.66        500.000        2622.23     
  1179.27        500.000        2622.29     
  1177.88        500.000        2622.35     
  1176.49        500.000        2622.41     
  1175.10        500.000        2622.47     
  1173.71        500.000        2622.53     
  1172.32        500.000        2622.59     
  1170.93        500.000        2622.65     
  1169.54        500.000        2622.71     
  1168.15        500.000        2622.77     
  1166.76        500.000        2622.83     
  1165.37        500.000        2622.89     
  1163.98        500.000        2622.95     
  1162.59        500.000        2623.01     
  1161.21        500.000        2623.09     
  1159.82        500.000        2623.14     
  1158.43        500.000        2623.20     
  1157.04        500.000        2623.26     
  1155.65        500.000        2623.32     
  1154.26        500.000        2623.28     
  1152.87        500.000        2623.45     
  1151.48        500.000        2623.49     
  1150.09        500.000        2623.55     
  1148.70        500.000        2623.63     
  1147.31        500.000        2623.68     
  1145.92        500.000        2623.75     
  1144.53        500.000        2623.69     
  1143.14        500.000        2623.79     
  1141.75        500.000        2623.75     
  1140.36        500.000        2623.98     
  1138.97        500.000        2624.02     
  1137.58        500.000        2624.02     
  1136.19        500.000        2624.14     
  1134.80        500.000        2624.21     
  1133.41        500.000        2624.23     
  1132.02        500.000        2624.23     
  1130.63        500.000        2624.39     
  1129.24        500.000        2624.43     
  1127.85        500.000        2624.48     
  1126.46        500.000        2624.58     
  1125.07        500.000        2624.55     
  1123.68        500.000        2624.61     
  1122.29        500.000        2624.67     
  1120.90        500.000        2624.77     
  1119.51        500.000        2624.83     
  1118.12        500.000        2624.89     
  1116.73        500.000        2624.95     
  1115.35        500.000        2625.01     
  1113.96        500.000        2625.07     
  1112.57        500.000        2625.13     
  1111.18        500.000        2625.19     
  1109.79        500.000        2625.25     
  1108.40        500.000        2625.31     
  1107.01        500.000        2625.37     
  1105.62        500.000        2625.43     
  1104.23        500.000        2625.49     
  1102.84        500.000        2625.59     
  1101.45        500.000        2625.64     
  1100.06        500.000        2625.68     
  1098.67        500.000        2625.61     
  1097.28        500.000        2625.81     
  1095.89        500.000        2625.87     
  1094.50        500.000        2625.93     
  1093.11        500.000        2625.99     
  1091.72        500.000        2626.05     
  1090.33        500.000        2626.10     
  1088.94        500.000        2626.16     
  1087.55        500.000        2626.07     
  1086.16        500.000        2626.13     
  1084.77        500.000        2626.19     
  1083.38        500.000        2626.25     
  1081.99        500.000        2626.31     
  1080.60        500.000        2626.37     
  1079.21        500.000        2626.42     
  1077.82        500.000        2626.48     
  1076.43        500.000        2626.54     
  1075.04        500.000        2626.73     
  1073.65        500.000        2626.79     
  1072.26        500.000        2626.72     
  1070.87        500.000        2626.90     
  1069.48        500.000        2626.96     
  1068.10        500.000        2627.01     
  1066.71        500.000        2627.10     
  1065.32        500.000        2627.13     
  1063.93        500.000        2627.18     
  1062.54        500.000        2627.27     
  1061.15        500.000        2627.33     
  1059.76        500.000        2627.42     
  1058.37        500.000        2627.49     
  1056.98        500.000        2627.51     
  1055.59        500.000        2627.55     
  1054.20        500.000        2627.62     
  1052.81        500.000        2627.66     
  1051.42        500.000        2627.58     
  1050.03        500.000        2627.75     
  1048.64        500.000        2627.83     
  1047.25        500.000        2627.76     
  1045.86        500.000        2627.96     
  1044.47        500.000        2628.01     
  1043.08        500.000        2628.07     
  1041.69        500.000        2628.12     
  1040.30        500.000        2628.18     
  1038.91        500.000        2628.23     
  1037.52        500.000        2628.16     
  1036.13        500.000        2628.34     
  1034.74        500.000        2628.40     
  1033.35        500.000        2628.46     
  1031.96        500.000        2628.51     
  1030.57        500.000        2628.56     
  1029.18        500.000        2628.62     
  1027.79        500.000        2628.67     
  1026.40        500.000        2628.62     
  1025.01        500.000        2628.77     
  1023.62        500.000        2628.73     
  1022.24        500.000        2628.79     
  1020.85        500.000        2628.84     
  1019.46        500.000        2628.99     
  1018.07        500.000        2629.04     
  1016.68        500.000        2629.01     
  1015.29        500.000        2629.07     
  1013.90        500.000        2629.13     
  1012.51        500.000        2629.18     
  1011.12        500.000        2629.24     
  1009.73        500.000        2629.29     
  1008.34        500.000        2629.35     
  1006.95        500.000        2629.41     
  1005.56        500.000        2629.46     
  1004.17        500.000        2629.52     
  1002.78        500.000        2629.58     
  1001.39        500.000        2629.63     
  1000.00        500.000        2629.69     
