|6.6.6
Archiving\03_Data\fracLP/QFM_m3.5/LAR/LAR_6.tab                           
           1
T(K)    
  0.000000000000000E+000
  0.000000000000000E+000
           0
           3
T(K)           P(bar)         rho,kg/m3     
  2000.00        500.000        3552.33     
  1997.49        500.000        3552.70     
  1994.99        500.000        3553.07     
  1992.48        500.000        3553.44     
  1989.97        500.000        3553.81     
  1987.47        500.000        3554.18     
  1984.96        500.000        3554.55     
  1982.46        500.000        3554.92     
  1979.95        500.000        3555.29     
  1977.44        500.000        3555.66     
  1974.94        500.000        3556.03     
  1972.43        500.000        3556.40     
  1969.92        500.000        3556.77     
  1967.42        500.000        3557.14     
  1964.91        500.000        3557.50     
  1962.41        500.000        3557.87     
  1959.90        500.000        3558.24     
  1957.39        500.000        3558.61     
  1954.89        500.000        3558.98     
  1952.38        500.000        3559.35     
  1949.87        500.000        3559.72     
  1947.37        500.000        3560.08     
  1944.86        500.000        3560.45     
  1942.36        500.000        3560.82     
  1939.85        500.000        3561.19     
  1937.34        500.000        3561.56     
  1934.84        500.000        3561.92     
  1932.33        500.000        3562.29     
  1929.82        500.000        3562.66     
  1927.32        500.000        3563.03     
  1924.81        500.000        3563.39     
  1922.31        500.000        3563.76     
  1919.80        500.000        3564.13     
  1917.29        500.000        3564.49     
  1914.79        500.000        3564.86     
  1912.28        500.000        3565.23     
  1909.77        500.000        3565.59     
  1907.27        500.000        3565.96     
  1904.76        500.000        3566.32     
  1902.26        500.000        3566.69     
  1899.75        500.000        3567.06     
  1897.24        500.000        3567.42     
  1894.74        500.000        3567.79     
  1892.23        500.000        3568.15     
  1889.72        500.000        3568.52     
  1887.22        500.000        3568.88     
  1884.71        500.000        3569.25     
  1882.21        500.000        3569.61     
  1879.70        500.000        3569.98     
  1877.19        500.000        3570.34     
  1874.69        500.000        3570.71     
  1872.18        500.000        3571.07     
  1869.67        500.000        3571.44     
  1867.17        500.000        3571.80     
  1864.66        500.000        3572.16     
  1862.16        500.000        3572.53     
  1859.65        500.000        3572.89     
  1857.14        500.000        3573.25     
  1854.64        500.000        3573.62     
  1852.13        500.000        3573.98     
  1849.62        500.000        3574.35     
  1847.12        500.000        3574.71     
  1844.61        500.000        3575.07     
  1842.11        500.000        3575.43     
  1839.60        500.000        3575.80     
  1837.09        500.000        3576.16     
  1834.59        500.000        3576.52     
  1832.08        500.000        3576.88     
  1829.57        500.000        3577.25     
  1827.07        500.000        3577.61     
  1824.56        500.000        3577.97     
  1822.06        500.000        3578.33     
  1819.55        500.000        3578.70     
  1817.04        500.000        3579.06     
  1814.54        500.000        3579.42     
  1812.03        500.000        3579.78     
  1809.52        500.000        3580.14     
  1807.02        500.000        3580.50     
  1804.51        500.000        3580.86     
  1802.01        500.000        3581.22     
  1799.50        500.000        3581.59     
  1796.99        500.000        3581.95     
  1794.49        500.000        3582.31     
  1791.98        500.000        3582.67     
  1789.47        500.000        3583.03     
  1786.97        500.000        3583.39     
  1784.46        500.000        3583.75     
  1781.95        500.000        3584.11     
  1779.45        500.000        3584.47     
  1776.94        500.000        3584.83     
  1774.44        500.000        3585.19     
  1771.93        500.000        3585.55     
  1769.42        500.000        3585.91     
  1766.92        500.000        3586.27     
  1764.41        500.000        3586.63     
  1761.90        500.000        3586.98     
  1759.40        500.000        3587.34     
  1756.89        500.000        3587.70     
  1754.39        500.000        3588.06     
  1751.88        500.000        3588.42     
  1749.37        500.000        3588.78     
  1746.87        500.000        3589.14     
  1744.36        500.000        3589.49     
  1741.85        500.000        3589.85     
  1739.35        500.000        3590.21     
  1736.84        500.000        3590.57     
  1734.34        500.000        3590.93     
  1731.83        500.000        3591.28     
  1729.32        500.000        3591.64     
  1726.82        500.000        3592.00     
  1724.31        500.000        3592.36     
  1721.80        500.000        3592.71     
  1719.30        500.000        3593.07     
  1716.79        500.000        3593.43     
  1714.29        500.000        3593.78     
  1711.78        500.000        3594.14     
  1709.27        500.000        3594.50     
  1706.77        500.000        3594.85     
  1704.26        500.000        3595.21     
  1701.75        500.000        3595.57     
  1699.25        500.000        3595.92     
  1696.74        500.000        3596.28     
  1694.24        500.000        3596.63     
  1691.73        500.000        3596.99     
  1689.22        500.000        3597.35     
  1686.72        500.000        3597.70     
  1684.21        500.000        3598.06     
  1681.70        500.000        3598.41     
  1679.20        500.000        3598.77     
  1676.69        500.000        3599.12     
  1674.19        500.000        3599.48     
  1671.68        500.000        3599.83     
  1669.17        500.000        3600.19     
  1666.67        500.000        3600.54     
  1664.16        500.000        3600.90     
  1661.65        500.000        3603.80     
  1659.15        500.000        3611.44     
  1656.64        500.000        3611.72     
  1654.14        500.000        3611.95     
  1651.63        500.000        3612.25     
  1649.12        500.000        3612.53     
  1646.62        500.000        3612.77     
  1644.11        500.000        3613.06     
  1641.60        500.000        3613.33     
  1639.10        500.000        3605.86     
  1636.59        500.000        3621.50     
  1634.09        500.000        3614.15     
  1631.58        500.000        3542.68     
  1629.07        500.000        3551.14     
  1626.57        500.000        3424.32     
  1624.06        500.000        3426.47     
  1621.55        500.000        3428.20     
  1619.05        500.000        3431.41     
  1616.54        500.000        3433.42     
  1614.04        500.000        3435.37     
  1611.53        500.000        3437.69     
  1609.02        500.000        3439.63     
  1606.52        500.000        3441.74     
  1604.01        500.000        3444.56     
  1601.50        500.000        3446.67     
  1599.00        500.000        3450.15     
  1596.49        500.000        3451.12     
  1593.98        500.000        3451.94     
  1591.48        500.000        3454.56     
  1588.97        500.000        3456.43     
  1586.47        500.000        3459.46     
  1583.96        500.000        3462.17     
  1581.45        500.000        3463.59     
  1578.95        500.000        3464.35     
  1576.44        500.000        3469.38     
  1573.93        500.000        3470.76     
  1571.43        500.000        4518.02     
  1568.92        500.000        3473.05     
  1566.42        500.000        3476.18     
  1563.91        500.000        3478.94     
  1561.40        500.000        3479.12     
  1558.90        500.000        3483.35     
  1556.39        500.000        3485.10     
  1553.88        500.000        3487.44     
  1551.38        500.000        3489.68     
  1548.87        500.000        3491.95     
  1546.37        500.000        3493.30     
  1543.86        500.000        3495.66     
  1541.35        500.000        3497.00     
  1538.85        500.000        3499.94     
  1536.34        500.000        3502.14     
  1533.83        500.000        3502.92     
  1531.33        500.000        3509.77     
  1528.82        500.000        3508.22     
  1526.32        500.000        3512.02     
  1523.81        500.000        3512.95     
  1521.30        500.000        3514.84     
  1518.80        500.000        3515.78     
  1516.29        500.000        3518.43     
  1513.78        500.000        3520.86     
  1511.28        500.000        3522.70     
  1508.77        500.000        3524.54     
  1506.27        500.000        3527.06     
  1503.76        500.000        3528.39     
  1501.25        500.000        3531.02     
  1498.75        500.000        3534.67     
  1496.24        500.000        3535.09     
  1493.73        500.000        3538.95     
  1491.23        500.000        3540.02     
  1488.72        500.000        3542.84     
  1486.22        500.000        3421.45     
  1483.71        500.000        3340.31     
  1481.20        500.000        3347.86     
  1478.70        500.000        3319.34     
  1476.19        500.000        3320.37     
  1473.68        500.000        3330.08     
  1471.18        500.000        3331.69     
  1468.67        500.000        3333.08     
  1466.17        500.000        3334.75     
  1463.66        500.000        3335.40     
  1461.15        500.000        3337.21     
  1458.65        500.000        3338.24     
  1456.14        500.000        3340.18     
  1453.63        500.000        3340.82     
  1451.13        500.000        3341.64     
  1448.62        500.000        3334.71     
  1446.12        500.000        3312.15     
  1443.61        500.000        3314.55     
  1441.10        500.000        3316.86     
  1438.60        500.000        3319.11     
  1436.09        500.000        3321.58     
  1433.58        500.000        3323.77     
  1431.08        500.000        3326.11     
  1428.57        500.000        3328.35     
  1426.07        500.000        3330.52     
  1423.56        500.000        3332.97     
  1421.05        500.000        3335.36     
  1418.55        500.000        3337.71     
  1416.04        500.000        3340.16     
  1413.53        500.000        3342.39     
  1411.03        500.000        3344.97     
  1408.52        500.000        3347.47     
  1406.02        500.000        3349.55     
  1403.51        500.000        3352.45     
  1401.00        500.000        3355.21     
  1398.50        500.000        3357.47     
  1395.99        500.000        3360.12     
  1393.48        500.000        3211.51     
  1390.98        500.000        3163.80     
  1388.47        500.000        3166.86     
  1385.96        500.000        3169.89     
  1383.46        500.000        3172.81     
  1380.95        500.000        3175.83     
  1378.45        500.000        3178.76     
  1375.94        500.000        3181.91     
  1373.43        500.000        3184.97     
  1370.93        500.000        3188.04     
  1368.42        500.000        3191.04     
  1365.91        500.000        3193.93     
  1363.41        500.000        3196.76     
  1360.90        500.000        3200.43     
  1358.40        500.000        3203.29     
  1355.89        500.000        3206.48     
  1353.38        500.000        3209.57     
  1350.88        500.000        3212.93     
  1348.37        500.000        3215.84     
  1345.86        500.000        3218.87     
  1343.36        500.000        3221.86     
  1340.85        500.000        3261.13     
  1338.35        500.000        3265.75     
  1335.84        500.000        3268.94     
  1333.33        500.000        3271.63     
  1330.83        500.000        3274.59     
  1328.32        500.000        3277.28     
  1325.81        500.000        3280.12     
  1323.31        500.000        3282.86     
  1320.80        500.000        3285.15     
  1318.30        500.000        3288.24     
  1315.79        500.000        3290.09     
  1313.28        500.000        3292.93     
  1310.78        500.000        3295.30     
  1308.27        500.000        3296.85     
  1305.76        500.000        3298.62     
  1303.26        500.000        3300.93     
  1300.75        500.000        3296.40     
  1298.25        500.000        3313.12     
  1295.74        500.000        3389.84     
  1293.23        500.000        3290.90     
  1290.73        500.000        3267.29     
  1288.22        500.000        3305.55     
  1285.71        500.000        3307.90     
  1283.21        500.000        3340.48     
  1280.70        500.000        3343.15     
  1278.20        500.000        3341.37     
  1275.69        500.000        3344.66     
  1273.18        500.000        3344.68     
  1270.68        500.000        3343.84     
  1268.17        500.000        2913.11     
  1265.66        500.000        2843.67     
  1263.16        500.000        2846.31     
  1260.65        500.000        2848.91     
  1258.15        500.000        2851.12     
  1255.64        500.000        2852.85     
  1253.13        500.000        2854.56     
  1250.63        500.000        2856.30     
  1248.12        500.000        2857.71     
  1245.61        500.000        2858.96     
  1243.11        500.000        2860.06     
  1240.60        500.000        2861.67     
  1238.10        500.000        2862.46     
  1235.59        500.000        2863.28     
  1233.08        500.000        2863.24     
  1230.58        500.000        2863.45     
  1228.07        500.000        2863.56     
  1225.56        500.000        2863.81     
  1223.06        500.000        2863.71     
  1220.55        500.000        2863.28     
  1218.05        500.000        2862.59     
  1215.54        500.000        2861.34     
  1213.03        500.000        2860.55     
  1210.53        500.000        2858.84     
  1208.02        500.000        2857.58     
  1205.51        500.000        2686.23     
  1203.01        500.000        2676.56     
  1200.50        500.000        2674.23     
  1197.99        500.000        2670.51     
  1195.49        500.000        2659.10     
  1192.98        500.000        2648.11     
  1190.48        500.000        2636.74     
  1187.97        500.000        2632.50     
  1185.46        500.000        2632.58     
  1182.96        500.000        2632.73     
  1180.45        500.000        2631.86     
  1177.94        500.000        2631.89     
  1175.44        500.000        2631.93     
  1172.93        500.000        2631.96     
  1170.43        500.000        2633.25     
  1167.92        500.000        2631.98     
  1165.41        500.000        2633.47     
  1162.91        500.000        2633.57     
  1160.40        500.000        2633.67     
  1157.89        500.000        2633.86     
  1155.39        500.000        2633.90     
  1152.88        500.000        2634.02     
  1150.38        500.000        2634.13     
  1147.87        500.000        2634.30     
  1145.36        500.000        2634.30     
  1142.86        500.000        2633.00     
  1140.35        500.000        2634.60     
  1137.84        500.000        2634.71     
  1135.34        500.000        2634.82     
  1132.83        500.000        2634.93     
  1130.33        500.000        2635.04     
  1127.82        500.000        2635.15     
  1125.31        500.000        2635.25     
  1122.81        500.000        2635.36     
  1120.30        500.000        2634.55     
  1117.79        500.000        2634.99     
  1115.29        500.000        2635.65     
  1112.78        500.000        2635.81     
  1110.28        500.000        2635.85     
  1107.77        500.000        2633.21     
  1105.26        500.000        2633.28     
  1102.76        500.000        2633.35     
  1100.25        500.000        2633.42     
  1097.74        500.000        2633.49     
  1095.24        500.000        2633.56     
  1092.73        500.000        2633.63     
  1090.23        500.000        2633.70     
  1087.72        500.000        2633.78     
  1085.21        500.000        2633.85     
  1082.71        500.000        2633.93     
  1080.20        500.000        2631.98     
  1077.69        500.000        2632.08     
  1075.19        500.000        2632.18     
  1072.68        500.000        2632.28     
  1070.18        500.000        2632.38     
  1067.67        500.000        2634.39     
  1065.16        500.000        2634.46     
  1062.66        500.000        2634.54     
  1060.15        500.000        2634.62     
  1057.64        500.000        2634.70     
  1055.14        500.000        2634.78     
  1052.63        500.000        2634.86     
  1050.13        500.000        2635.00     
  1047.62        500.000        2635.09     
  1045.11        500.000        2635.13     
  1042.61        500.000        2635.21     
  1040.10        500.000        2635.66     
  1037.59        500.000        2635.42     
  1035.09        500.000        2635.50     
  1032.58        500.000        2635.55     
  1030.08        500.000        2635.57     
  1027.57        500.000        2635.72     
  1025.06        500.000        2634.10     
  1022.56        500.000        2635.89     
  1020.05        500.000        2634.30     
  1017.54        500.000        2636.06     
  1015.04        500.000        2636.15     
  1012.53        500.000        2636.24     
  1010.03        500.000        2636.32     
  1007.52        500.000        2636.41     
  1005.01        500.000        2636.50     
  1002.51        500.000        2636.58     
  1000.00        500.000        2636.67     
