|6.6.6
Archiving\03_Data\DfracLP/QFM_m0.25/K22/K22_6.tab                     
           1
T(K)    
  0.000000000000000E+000
  0.000000000000000E+000
           0
           3
T(K)           P(bar)         rho,kg/m3     
  2000.00        500.000        3236.70     
  1997.49        500.000        2884.32     
  1994.99        500.000        2884.90     
  1992.48        500.000        2885.48     
  1989.97        500.000        2886.07     
  1987.47        500.000        2886.65     
  1984.96        500.000        2887.23     
  1982.46        500.000        2887.81     
  1979.95        500.000        2888.39     
  1977.44        500.000        2888.97     
  1974.94        500.000        2889.55     
  1972.43        500.000        2890.13     
  1969.92        500.000        2890.71     
  1967.42        500.000        2891.30     
  1964.91        500.000        2891.88     
  1962.41        500.000        2892.46     
  1959.90        500.000        2893.04     
  1957.39        500.000        2893.62     
  1954.89        500.000        2894.20     
  1952.38        500.000        2894.78     
  1949.87        500.000        2895.37     
  1947.37        500.000        2895.95     
  1944.86        500.000        2896.53     
  1942.36        500.000        2897.11     
  1939.85        500.000        2897.69     
  1937.34        500.000        2898.27     
  1934.84        500.000        2898.85     
  1932.33        500.000        3112.43     
  1929.82        500.000        3113.53     
  1927.32        500.000        3115.26     
  1924.81        500.000        3116.64     
  1922.31        500.000        3117.66     
  1919.80        500.000        3132.06     
  1917.29        500.000        3120.34     
  1914.79        500.000        3131.62     
  1912.28        500.000        3144.56     
  1909.77        500.000        3145.92     
  1907.27        500.000        3147.41     
  1904.76        500.000        3148.61     
  1902.26        500.000        3150.27     
  1899.75        500.000        3151.57     
  1897.24        500.000        3153.19     
  1894.74        500.000        3155.30     
  1892.23        500.000        3156.25     
  1889.72        500.000        3157.63     
  1887.22        500.000        3159.05     
  1884.71        500.000        3160.74     
  1882.21        500.000        3162.27     
  1879.70        500.000        3163.37     
  1877.19        500.000        3165.12     
  1874.69        500.000        3166.60     
  1872.18        500.000        3168.17     
  1869.67        500.000        3169.99     
  1867.17        500.000        3171.14     
  1864.66        500.000        3172.96     
  1862.16        500.000        3174.25     
  1859.65        500.000        3175.74     
  1857.14        500.000        3177.33     
  1854.64        500.000        3178.98     
  1852.13        500.000        3180.48     
  1849.62        500.000        3182.36     
  1847.12        500.000        3183.49     
  1844.61        500.000        3184.98     
  1842.11        500.000        3186.56     
  1839.60        500.000        3188.19     
  1837.09        500.000        3185.87     
  1834.59        500.000        3190.97     
  1832.08        500.000        3195.45     
  1829.57        500.000        3192.39     
  1827.07        500.000        3195.83     
  1824.56        500.000        3197.11     
  1822.06        500.000        3199.01     
  1819.55        500.000        3200.69     
  1817.04        500.000        3201.53     
  1814.54        500.000        3203.89     
  1812.03        500.000        3205.21     
  1809.52        500.000        3206.50     
  1807.02        500.000        3208.89     
  1804.51        500.000        3209.75     
  1802.01        500.000        3211.41     
  1799.50        500.000        3212.78     
  1796.99        500.000        3214.42     
  1794.49        500.000        3215.96     
  1791.98        500.000        3217.63     
  1789.47        500.000        3219.33     
  1786.97        500.000        3220.46     
  1784.46        500.000        3222.48     
  1781.95        500.000        3223.90     
  1779.45        500.000        3225.63     
  1776.94        500.000        3225.76     
  1774.44        500.000        3228.76     
  1771.93        500.000        3230.00     
  1769.42        500.000        3231.84     
  1766.92        500.000        3233.06     
  1764.41        500.000        3235.25     
  1761.90        500.000        3236.12     
  1759.40        500.000        3238.39     
  1756.89        500.000        3239.69     
  1754.39        500.000        3241.10     
  1751.88        500.000        3242.42     
  1749.37        500.000        3244.21     
  1746.87        500.000        3245.74     
  1744.36        500.000        3247.22     
  1741.85        500.000        3249.60     
  1739.35        500.000        3250.73     
  1736.84        500.000        3252.27     
  1734.34        500.000        3250.69     
  1731.83        500.000        3255.71     
  1729.32        500.000        3256.98     
  1726.82        500.000        3258.69     
  1724.31        500.000        3260.41     
  1721.80        500.000        3261.61     
  1719.30        500.000        3263.06     
  1716.79        500.000        3264.56     
  1714.29        500.000        3266.69     
  1711.78        500.000        3267.86     
  1709.27        500.000        3269.84     
  1706.77        500.000        3271.39     
  1704.26        500.000        3272.29     
  1701.75        500.000        3273.47     
  1699.25        500.000        3276.31     
  1696.74        500.000        3278.00     
  1694.24        500.000        3279.66     
  1691.73        500.000        3281.00     
  1689.22        500.000        3281.81     
  1686.72        500.000        3283.56     
  1684.21        500.000        3285.54     
  1681.70        500.000        3286.73     
  1679.20        500.000        3288.28     
  1676.69        500.000        3290.09     
  1674.19        500.000        3291.08     
  1671.68        500.000        3293.29     
  1669.17        500.000        3294.91     
  1666.67        500.000        3295.78     
  1664.16        500.000        3297.69     
  1661.65        500.000        3299.40     
  1659.15        500.000        3300.95     
  1656.64        500.000        3302.67     
  1654.14        500.000        3303.41     
  1651.63        500.000        3305.75     
  1649.12        500.000        3307.36     
  1646.62        500.000        3308.91     
  1644.11        500.000        3310.78     
  1641.60        500.000        3396.05     
  1639.10        500.000        3312.83     
  1636.59        500.000        3313.03     
  1634.09        500.000        3315.79     
  1631.58        500.000        3316.47     
  1629.07        500.000        3318.23     
  1626.57        500.000        3319.67     
  1624.06        500.000        3322.51     
  1621.55        500.000        3322.23     
  1619.05        500.000        3324.35     
  1616.54        500.000        3326.11     
  1614.04        500.000        3326.39     
  1611.53        500.000        3328.58     
  1609.02        500.000        3241.62     
  1606.52        500.000        3232.98     
  1604.01        500.000        3233.95     
  1601.50        500.000        3235.36     
  1599.00        500.000        3235.99     
  1596.49        500.000        3237.21     
  1593.98        500.000        3237.79     
  1591.48        500.000        3239.03     
  1588.97        500.000        3239.99     
  1586.47        500.000        3240.90     
  1583.96        500.000        3242.29     
  1581.45        500.000        3243.05     
  1578.95        500.000        3243.94     
  1576.44        500.000        3243.98     
  1573.93        500.000        3246.07     
  1571.43        500.000        3247.42     
  1568.92        500.000        3248.24     
  1566.42        500.000        3249.80     
  1563.91        500.000        3249.37     
  1561.40        500.000        3250.84     
  1558.90        500.000        3251.80     
  1556.39        500.000        3252.79     
  1553.88        500.000        3254.14     
  1551.38        500.000        3254.96     
  1548.87        500.000        3255.84     
  1546.37        500.000        3255.86     
  1543.86        500.000        3256.83     
  1541.35        500.000        3258.14     
  1538.85        500.000        3260.58     
  1536.34        500.000        3259.00     
  1533.83        500.000        3260.24     
  1531.33        500.000        3259.12     
  1528.82        500.000        3261.87     
  1526.32        500.000        3263.19     
  1523.81        500.000        3264.16     
  1521.30        500.000        3267.67     
  1518.80        500.000        3267.78     
  1516.29        500.000        3266.76     
  1513.78        500.000        3289.08     
  1511.28        500.000        3269.45     
  1508.77        500.000        3270.41     
  1506.27        500.000        3271.89     
  1503.76        500.000        3272.83     
  1501.25        500.000        3273.61     
  1498.75        500.000        3275.34     
  1496.24        500.000        3275.81     
  1493.73        500.000        3276.18     
  1491.23        500.000        3277.97     
  1488.72        500.000        3279.06     
  1486.22        500.000        3280.23     
  1483.71        500.000        3281.25     
  1481.20        500.000        3282.76     
  1478.70        500.000        3284.18     
  1476.19        500.000        3284.79     
  1473.68        500.000        3286.22     
  1471.18        500.000        3288.27     
  1468.67        500.000        3288.97     
  1466.17        500.000        3290.10     
  1463.66        500.000        3291.17     
  1461.15        500.000        3288.90     
  1458.65        500.000        3266.81     
  1456.14        500.000        3260.79     
  1453.63        500.000        3262.98     
  1451.13        500.000        3266.63     
  1448.62        500.000        3267.65     
  1446.12        500.000        3270.73     
  1443.61        500.000        3271.94     
  1441.10        500.000        3274.50     
  1438.60        500.000        3276.64     
  1436.09        500.000        3278.70     
  1433.58        500.000        3281.38     
  1431.08        500.000        3283.67     
  1428.57        500.000        3286.06     
  1426.07        500.000        3288.26     
  1423.56        500.000        3290.79     
  1421.05        500.000        3293.20     
  1418.55        500.000        3295.46     
  1416.04        500.000        3297.77     
  1413.53        500.000        3174.40     
  1411.03        500.000        3124.82     
  1408.52        500.000        3127.81     
  1406.02        500.000        3130.64     
  1403.51        500.000        3133.31     
  1401.00        500.000        3136.20     
  1398.50        500.000        3139.14     
  1395.99        500.000        3141.95     
  1393.48        500.000        3144.82     
  1390.98        500.000        3147.80     
  1388.47        500.000        3150.61     
  1385.96        500.000        3153.58     
  1383.46        500.000        3169.26     
  1380.95        500.000        3176.26     
  1378.45        500.000        3177.44     
  1375.94        500.000        3185.62     
  1373.43        500.000        3187.06     
  1370.93        500.000        3192.55     
  1368.42        500.000        3196.67     
  1365.91        500.000        3200.76     
  1363.41        500.000        3205.09     
  1360.90        500.000        3209.31     
  1358.40        500.000        3213.53     
  1355.89        500.000        3217.84     
  1353.38        500.000        3222.22     
  1350.88        500.000        3226.32     
  1348.37        500.000        3230.66     
  1345.86        500.000        3234.97     
  1343.36        500.000        3239.33     
  1340.85        500.000        3243.60     
  1338.35        500.000        3247.98     
  1335.84        500.000        3252.00     
  1333.33        500.000        3256.36     
  1330.83        500.000        3260.39     
  1328.32        500.000        3264.40     
  1325.81        500.000        3268.45     
  1323.31        500.000        3272.23     
  1320.80        500.000        3276.17     
  1318.30        500.000        3279.92     
  1315.79        500.000        3283.51     
  1313.28        500.000        3287.03     
  1310.78        500.000        3290.46     
  1308.27        500.000        3293.72     
  1305.76        500.000        3296.77     
  1303.26        500.000        3299.65     
  1300.75        500.000        3302.59     
  1298.25        500.000        3305.28     
  1295.74        500.000        3307.71     
  1293.23        500.000        3310.07     
  1290.73        500.000        3312.18     
  1288.22        500.000        3314.10     
  1285.71        500.000        3356.28     
  1283.21        500.000        3386.75     
  1280.70        500.000        3387.57     
  1278.20        500.000        3388.17     
  1275.69        500.000        3388.58     
  1273.18        500.000        3388.40     
  1270.68        500.000        3388.64     
  1268.17        500.000        3388.23     
  1265.66        500.000        3388.19     
  1263.16        500.000        3387.63     
  1260.65        500.000        3386.89     
  1258.15        500.000        3386.40     
  1255.64        500.000        3385.58     
  1253.13        500.000        3425.15     
  1250.63        500.000        3100.51     
  1248.12        500.000        2838.79     
  1245.61        500.000        2837.32     
  1243.11        500.000        2835.64     
  1240.60        500.000        2833.98     
  1238.10        500.000        2832.17     
  1235.59        500.000        2830.40     
  1233.08        500.000        2828.56     
  1230.58        500.000        2826.88     
  1228.07        500.000        2824.86     
  1225.56        500.000        2822.95     
  1223.06        500.000        2814.66     
  1220.55        500.000        2819.46     
  1218.05        500.000        2824.23     
  1215.54        500.000        2810.62     
  1213.03        500.000        2802.49     
  1210.53        500.000        2830.47     
  1208.02        500.000        2819.45     
  1205.51        500.000        2793.81     
  1203.01        500.000        2874.14     
  1200.50        500.000        2760.87     
  1197.99        500.000        2817.75     
  1195.49        500.000        2785.51     
  1192.98        500.000        2422.14     
  1190.48        500.000        2422.32     
  1187.97        500.000        2422.50     
  1185.46        500.000        2633.26     
  1182.96        500.000        2633.37     
  1180.45        500.000        2633.44     
  1177.94        500.000        2633.57     
  1175.44        500.000        2633.68     
  1172.93        500.000        2633.83     
  1170.43        500.000        2633.96     
  1167.92        500.000        2634.08     
  1165.41        500.000        2634.23     
  1162.91        500.000        2634.33     
  1160.40        500.000        2634.44     
  1157.89        500.000        2634.58     
  1155.39        500.000        2634.76     
  1152.88        500.000        2634.84     
  1150.38        500.000        2635.03     
  1147.87        500.000        2635.28     
  1145.36        500.000        2635.51     
  1142.86        500.000        2635.74     
  1140.35        500.000        2635.98     
  1137.84        500.000        2636.22     
  1135.34        500.000        2636.45     
  1132.83        500.000        2636.69     
  1130.33        500.000        2636.95     
  1127.82        500.000        2637.17     
  1125.31        500.000        2637.43     
  1122.81        500.000        2637.69     
  1120.30        500.000        2637.93     
  1117.79        500.000        2638.44     
  1115.29        500.000        2638.56     
  1112.78        500.000        2638.67     
  1110.28        500.000        2638.78     
  1107.77        500.000        2638.89     
  1105.26        500.000        2639.57     
  1102.76        500.000        2639.68     
  1100.25        500.000        2639.79     
  1097.74        500.000        2639.90     
  1095.24        500.000        2640.49     
  1092.73        500.000        2640.72     
  1090.23        500.000        2640.83     
  1087.72        500.000        2641.28     
  1085.21        500.000        2641.56     
  1082.71        500.000        2641.79     
  1080.20        500.000        2641.90     
  1077.69        500.000        2642.38     
  1075.19        500.000        2642.66     
  1072.68        500.000        2642.95     
  1070.18        500.000        2643.24     
  1067.67        500.000        2643.53     
  1065.16        500.000        2643.83     
  1062.66        500.000        2644.13     
  1060.15        500.000        2644.43     
  1057.64        500.000        2644.03     
  1055.14        500.000        2644.25     
  1052.63        500.000        2644.30     
  1050.13        500.000        2644.34     
  1047.62        500.000        2644.39     
  1045.11        500.000        2644.44     
  1042.61        500.000        2644.33     
  1040.10        500.000        2644.56     
  1037.59        500.000        2644.62     
  1035.09        500.000        2644.48     
  1032.58        500.000        2644.75     
  1030.08        500.000        2644.83     
  1027.57        500.000        2644.89     
  1025.06        500.000        2644.98     
  1022.56        500.000        2645.04     
  1020.05        500.000        2645.12     
  1017.54        500.000        2645.20     
  1015.04        500.000        2644.56     
  1012.53        500.000        2644.64     
  1010.03        500.000        2644.80     
  1007.52        500.000        2644.85     
  1005.01        500.000        2644.94     
  1002.51        500.000        2645.02     
  1000.00        500.000        2645.50     
