|6.6.6
Archiving\03_Data\eqLP/QFM_m5/Y98/Y98_1.tab                               
           1
T(K)    
  0.000000000000000E+000
  0.000000000000000E+000
           0
          12
T(K)           P(bar)         melt(TH)       pxmn           iron           Ni             Sp(TH)         O(HP)          Opx(TH)        Cpx(TH)        Cpx(TH)        an            
  2000.00        500.000        96.2664       0.971805        2.73794       0.238528E-001            NaN            NaN            NaN            NaN            NaN            NaN
  1996.79        500.000        96.2389       0.971881        2.76538       0.238546E-001            NaN            NaN            NaN            NaN            NaN            NaN
  1993.59        500.000        96.2114       0.971957        2.79283       0.238565E-001            NaN            NaN            NaN            NaN            NaN            NaN
  1990.38        500.000        96.1838       0.972033        2.82029       0.238584E-001            NaN            NaN            NaN            NaN            NaN            NaN
  1987.18        500.000        96.1563       0.972109        2.84774       0.238602E-001            NaN            NaN            NaN            NaN            NaN            NaN
  1983.97        500.000        96.1287       0.972185        2.87521       0.238621E-001            NaN            NaN            NaN            NaN            NaN            NaN
  1980.77        500.000        96.1012       0.972261        2.90267       0.238640E-001            NaN            NaN            NaN            NaN            NaN            NaN
  1977.56        500.000        96.0737       0.972337        2.93014       0.238658E-001            NaN            NaN            NaN            NaN            NaN            NaN
  1974.36        500.000        96.0461       0.972413        2.95762       0.238677E-001            NaN            NaN            NaN            NaN            NaN            NaN
  1971.15        500.000        96.0196       0.972486        2.98402       0.238695E-001            NaN            NaN            NaN            NaN            NaN            NaN
  1967.95        500.000        95.9931       0.972559        3.01043       0.238713E-001            NaN            NaN            NaN            NaN            NaN            NaN
  1964.74        500.000        95.9667       0.972632        3.03684       0.238731E-001            NaN            NaN            NaN            NaN            NaN            NaN
  1961.54        500.000        95.9402       0.972705        3.06326       0.238749E-001            NaN            NaN            NaN            NaN            NaN            NaN
  1958.33        500.000        95.9137       0.972779        3.08968       0.238767E-001            NaN            NaN            NaN            NaN            NaN            NaN
  1955.13        500.000        95.8872       0.972852        3.11610       0.238785E-001            NaN            NaN            NaN            NaN            NaN            NaN
  1951.92        500.000        95.8607       0.972925        3.14253       0.238803E-001            NaN            NaN            NaN            NaN            NaN            NaN
  1948.72        500.000        95.8342       0.972998        3.16896       0.238821E-001            NaN            NaN            NaN            NaN            NaN            NaN
  1945.51        500.000        95.8087       0.973068        3.19437       0.238838E-001            NaN            NaN            NaN            NaN            NaN            NaN
  1942.31        500.000        95.7832       0.973139        3.21978       0.238855E-001            NaN            NaN            NaN            NaN            NaN            NaN
  1939.10        500.000        95.7577       0.973209        3.24519       0.238872E-001            NaN            NaN            NaN            NaN            NaN            NaN
  1935.90        500.000        95.7322       0.973279        3.27061       0.238890E-001            NaN            NaN            NaN            NaN            NaN            NaN
  1932.69        500.000        95.7067       0.973350        3.29604       0.238907E-001            NaN            NaN            NaN            NaN            NaN            NaN
  1929.49        500.000        95.6812       0.973420        3.32146       0.238924E-001            NaN            NaN            NaN            NaN            NaN            NaN
  1926.28        500.000        95.6557       0.973490        3.34689       0.238942E-001            NaN            NaN            NaN            NaN            NaN            NaN
  1923.08        500.000        95.6302       0.973561        3.37233       0.238959E-001            NaN            NaN            NaN            NaN            NaN            NaN
  1919.87        500.000        95.6057       0.973628        3.39675       0.238975E-001            NaN            NaN            NaN            NaN            NaN            NaN
  1916.67        500.000        95.5812       0.973696        3.42117       0.238992E-001            NaN            NaN            NaN            NaN            NaN            NaN
  1913.46        500.000        95.5567       0.973764        3.44560       0.239009E-001            NaN            NaN            NaN            NaN            NaN            NaN
  1910.26        500.000        95.5322       0.973831        3.47003       0.239025E-001            NaN            NaN            NaN            NaN            NaN            NaN
  1907.05        500.000        95.5077       0.973899        3.49446       0.239042E-001            NaN            NaN            NaN            NaN            NaN            NaN
  1903.85        500.000        95.4832       0.973966        3.51890       0.239058E-001            NaN            NaN            NaN            NaN            NaN            NaN
  1900.64        500.000        95.4587       0.974034        3.54334       0.239075E-001            NaN            NaN            NaN            NaN            NaN            NaN
  1897.44        500.000        95.4342       0.974102        3.56779       0.239092E-001            NaN            NaN            NaN            NaN            NaN            NaN
  1894.23        500.000        95.4107       0.974166        3.59123       0.239107E-001            NaN            NaN            NaN            NaN            NaN            NaN
  1891.03        500.000        95.3872       0.974231        3.61468       0.239123E-001            NaN            NaN            NaN            NaN            NaN            NaN
  1887.82        500.000        95.3637       0.974296        3.63814       0.239139E-001            NaN            NaN            NaN            NaN            NaN            NaN
  1884.62        500.000        95.3401       0.974361        3.66160       0.239155E-001            NaN            NaN            NaN            NaN            NaN            NaN
  1881.41        500.000        95.3166       0.974426        3.68506       0.239171E-001            NaN            NaN            NaN            NaN            NaN            NaN
  1878.21        500.000        95.2931       0.974491        3.70852       0.239187E-001            NaN            NaN            NaN            NaN            NaN            NaN
  1875.00        500.000        95.2695       0.974556        3.73199       0.239203E-001            NaN            NaN            NaN            NaN            NaN            NaN
  1871.79        500.000        95.2460       0.974621        3.75546       0.239219E-001            NaN            NaN            NaN            NaN            NaN            NaN
  1868.59        500.000        95.2234       0.974683        3.77795       0.239234E-001            NaN            NaN            NaN            NaN            NaN            NaN
  1865.38        500.000        95.2009       0.974745        3.80044       0.239249E-001            NaN            NaN            NaN            NaN            NaN            NaN
  1862.18        500.000        95.1783       0.974807        3.82294       0.239265E-001            NaN            NaN            NaN            NaN            NaN            NaN
  1858.97        500.000        95.1558       0.974869        3.84544       0.239280E-001            NaN            NaN            NaN            NaN            NaN            NaN
  1855.77        500.000        95.1332       0.974932        3.86794       0.239295E-001            NaN            NaN            NaN            NaN            NaN            NaN
  1852.56        500.000        95.1106       0.974994        3.89045       0.239311E-001            NaN            NaN            NaN            NaN            NaN            NaN
  1849.36        500.000        95.0881       0.975056        3.91296       0.239326E-001            NaN            NaN            NaN            NaN            NaN            NaN
  1846.15        500.000        95.0655       0.975118        3.93547       0.239341E-001            NaN            NaN            NaN            NaN            NaN            NaN
  1842.95        500.000        95.0439       0.975178        3.95702       0.239356E-001            NaN            NaN            NaN            NaN            NaN            NaN
  1839.74        500.000        95.0223       0.975238        3.97857       0.239370E-001            NaN            NaN            NaN            NaN            NaN            NaN
  1836.54        500.000        95.0006       0.975297        4.00012       0.239385E-001            NaN            NaN            NaN            NaN            NaN            NaN
  1833.33        500.000        94.9790       0.975357        4.02168       0.239400E-001            NaN            NaN            NaN            NaN            NaN            NaN
  1830.13        500.000        94.9574       0.975416        4.04324       0.239414E-001            NaN            NaN            NaN            NaN            NaN            NaN
  1826.92        500.000        94.9358       0.975476        4.06480       0.239429E-001            NaN            NaN            NaN            NaN            NaN            NaN
  1823.72        500.000        94.9142       0.975536        4.08637       0.239443E-001            NaN            NaN            NaN            NaN            NaN            NaN
  1820.51        500.000        94.8925       0.975595        4.10793       0.239458E-001            NaN            NaN            NaN            NaN            NaN            NaN
  1817.31        500.000        94.8718       0.975652        4.12855       0.239472E-001            NaN            NaN            NaN            NaN            NaN            NaN
  1814.10        500.000        94.8512       0.975709        4.14917       0.239486E-001            NaN            NaN            NaN            NaN            NaN            NaN
  1810.90        500.000        94.8305       0.975766        4.16980       0.239500E-001            NaN            NaN            NaN            NaN            NaN            NaN
  1807.69        500.000        94.8098       0.975823        4.19042       0.239514E-001            NaN            NaN            NaN            NaN            NaN            NaN
  1804.49        500.000        94.7891       0.975880        4.21105       0.239528E-001            NaN            NaN            NaN            NaN            NaN            NaN
  1801.28        500.000        94.7684       0.975937        4.23168       0.239542E-001            NaN            NaN            NaN            NaN            NaN            NaN
  1798.08        500.000        94.7477       0.975994        4.25231       0.239556E-001            NaN            NaN            NaN            NaN            NaN            NaN
  1794.87        500.000        94.7270       0.976051        4.27295       0.239570E-001            NaN            NaN            NaN            NaN            NaN            NaN
  1791.67        500.000        94.7073       0.976105        4.29265       0.239583E-001            NaN            NaN            NaN            NaN            NaN            NaN
  1788.46        500.000        94.6875       0.976160        4.31235       0.239597E-001            NaN            NaN            NaN            NaN            NaN            NaN
  1785.26        500.000        94.6678       0.976214        4.33206       0.239610E-001            NaN            NaN            NaN            NaN            NaN            NaN
  1782.05        500.000        94.6480       0.976269        4.35177       0.239623E-001            NaN            NaN            NaN            NaN            NaN            NaN
  1778.85        500.000        94.6282       0.976323        4.37148       0.239637E-001            NaN            NaN            NaN            NaN            NaN            NaN
  1775.64        500.000        94.6085       0.976378        4.39119       0.239650E-001            NaN            NaN            NaN            NaN            NaN            NaN
  1772.44        500.000        94.5887       0.976432        4.41090       0.239664E-001            NaN            NaN            NaN            NaN            NaN            NaN
  1769.23        500.000        94.5689       0.976487        4.43062       0.239677E-001            NaN            NaN            NaN            NaN            NaN            NaN
  1766.03        500.000        94.5501       0.976538        4.44941       0.239690E-001            NaN            NaN            NaN            NaN            NaN            NaN
  1762.82        500.000        94.5312       0.976590        4.46821       0.239702E-001            NaN            NaN            NaN            NaN            NaN            NaN
  1759.62        500.000        94.5124       0.976642        4.48701       0.239715E-001            NaN            NaN            NaN            NaN            NaN            NaN
  1756.41        500.000        94.4935       0.976694        4.50581       0.239728E-001            NaN            NaN            NaN            NaN            NaN            NaN
  1753.21        500.000        94.4747       0.976746        4.52461       0.239741E-001            NaN            NaN            NaN            NaN            NaN            NaN
  1750.00        500.000        94.4558       0.976798        4.54341       0.239753E-001            NaN            NaN            NaN            NaN            NaN            NaN
  1746.79        500.000        94.4370       0.976850        4.56222       0.239766E-001            NaN            NaN            NaN            NaN            NaN            NaN
  1743.59        500.000        94.4181       0.976902        4.58103       0.239779E-001            NaN            NaN            NaN            NaN            NaN            NaN
  1740.38        500.000        94.4001       0.976951        4.59892       0.239791E-001            NaN            NaN            NaN            NaN            NaN            NaN
  1737.18        500.000        94.3822       0.977000        4.61682       0.239803E-001            NaN            NaN            NaN            NaN            NaN            NaN
  1733.97        500.000        94.3642       0.977050        4.63472       0.239815E-001            NaN            NaN            NaN            NaN            NaN            NaN
  1730.77        500.000        94.3463       0.977099        4.65262       0.239827E-001            NaN            NaN            NaN            NaN            NaN            NaN
  1727.56        500.000        94.3283       0.977149        4.67053       0.239839E-001            NaN            NaN            NaN            NaN            NaN            NaN
  1724.36        500.000        94.3104       0.977198        4.68843       0.239852E-001            NaN            NaN            NaN            NaN            NaN            NaN
  1721.15        500.000        94.2924       0.977247        4.70634       0.239864E-001            NaN            NaN            NaN            NaN            NaN            NaN
  1717.95        500.000        94.2745       0.977297        4.72425       0.239876E-001            NaN            NaN            NaN            NaN            NaN            NaN
  1714.74        500.000        94.2574       0.977344        4.74125       0.239887E-001            NaN            NaN            NaN            NaN            NaN            NaN
  1711.54        500.000        94.2404       0.977391        4.75825       0.239899E-001            NaN            NaN            NaN            NaN            NaN            NaN
  1708.33        500.000        94.2233       0.977437        4.77525       0.239910E-001            NaN            NaN            NaN            NaN            NaN            NaN
  1705.13        500.000        94.2063       0.977484        4.79225       0.239922E-001            NaN            NaN            NaN            NaN            NaN            NaN
  1701.92        500.000        94.1892       0.977531        4.80926       0.239933E-001            NaN            NaN            NaN            NaN            NaN            NaN
  1698.72        500.000        94.1722       0.977578        4.82627       0.239945E-001            NaN            NaN            NaN            NaN            NaN            NaN
  1695.51        500.000        94.1551       0.977625        4.84327       0.239956E-001            NaN            NaN            NaN            NaN            NaN            NaN
  1692.31        500.000        94.1380       0.977672        4.86029       0.239968E-001            NaN            NaN            NaN            NaN            NaN            NaN
  1689.10        500.000        94.1217       0.977717        4.87663       0.239979E-001            NaN            NaN            NaN            NaN            NaN            NaN
  1685.90        500.000        94.1053       0.977762        4.89298       0.239990E-001            NaN            NaN            NaN            NaN            NaN            NaN
  1682.69        500.000        94.0889       0.977807        4.90932       0.240001E-001            NaN            NaN            NaN            NaN            NaN            NaN
  1679.49        500.000        94.0725       0.977852        4.92567       0.240012E-001            NaN            NaN            NaN            NaN            NaN            NaN
  1676.28        500.000        94.0564       0.977896        4.94170       0.240023E-001            NaN            NaN            NaN            NaN            NaN            NaN
  1673.08        500.000        94.0403       0.977940        4.95772       0.240034E-001            NaN            NaN            NaN            NaN            NaN            NaN
  1669.87        500.000        94.0245       0.977984        4.97353       0.240044E-001            NaN            NaN            NaN            NaN            NaN            NaN
  1666.67        500.000        93.9881       0.978037        4.99279       0.240057E-001  0.170891E-001            NaN            NaN            NaN            NaN            NaN
  1663.46        500.000        93.9651       0.978073        5.00577       0.240066E-001  0.270844E-001            NaN            NaN            NaN            NaN            NaN
  1660.26        500.000        93.9421       0.978108        5.01875       0.240075E-001  0.370804E-001            NaN            NaN            NaN            NaN            NaN
  1657.05        500.000        93.9190       0.978144        5.03173       0.240084E-001  0.470771E-001            NaN            NaN            NaN            NaN            NaN
  1653.85        500.000        93.8960       0.978179        5.04471       0.240092E-001  0.570745E-001            NaN            NaN            NaN            NaN            NaN
  1650.64        500.000        93.8730       0.978215        5.05769       0.240101E-001  0.670727E-001            NaN            NaN            NaN            NaN            NaN
  1647.44        500.000        93.8500       0.978251        5.07068       0.240110E-001  0.770715E-001            NaN            NaN            NaN            NaN            NaN
  1644.23        500.000        93.8270       0.978286        5.08366       0.240119E-001  0.870712E-001            NaN            NaN            NaN            NaN            NaN
  1641.03        500.000        93.8039       0.978322        5.09664       0.240127E-001  0.970715E-001            NaN            NaN            NaN            NaN            NaN
  1637.82        500.000        93.7748       0.978355        5.10861       0.240135E-001  0.114256                 NaN            NaN            NaN            NaN            NaN
  1634.62        500.000        93.7456       0.978388        5.12058       0.240144E-001  0.131441                 NaN            NaN            NaN            NaN            NaN
  1631.41        500.000        93.7164       0.978420        5.13255       0.240152E-001  0.148628                 NaN            NaN            NaN            NaN            NaN
  1628.21        500.000        93.6872       0.978453        5.14451       0.240160E-001  0.165815                 NaN            NaN            NaN            NaN            NaN
  1625.00        500.000        93.6587       0.978485        5.15621       0.240167E-001  0.182551                 NaN            NaN            NaN            NaN            NaN
  1621.79        500.000        93.6303       0.978517        5.16790       0.240175E-001  0.199288                 NaN            NaN            NaN            NaN            NaN
  1618.59        500.000        93.6022       0.978549        5.17944       0.240183E-001  0.215830                 NaN            NaN            NaN            NaN            NaN
  1615.38        500.000        92.8635       0.978387        5.12139       0.232155E-001  0.234660       0.778856                 NaN            NaN            NaN            NaN
  1612.18        500.000        92.0764       0.978199        5.05373       0.223420E-001  0.253411        1.61596                 NaN            NaN            NaN            NaN
  1608.97        500.000        91.2895       0.978010        4.98610       0.214689E-001  0.272156        2.45273                 NaN            NaN            NaN            NaN
  1605.77        500.000        90.5030       0.977822        4.91849       0.205961E-001  0.290893        3.28919                 NaN            NaN            NaN            NaN
  1602.56        500.000        89.7168       0.977634        4.85091       0.197237E-001  0.309622        4.12532                 NaN            NaN            NaN            NaN
  1599.36        500.000        87.8996       0.977595        4.83641       0.195706E-001  0.295722        4.27623        1.69483                 NaN            NaN            NaN
  1596.15        500.000        85.8899       0.977594        4.83539       0.195992E-001  0.273432        4.25494        3.74911                 NaN            NaN            NaN
  1592.95        500.000        83.9906       0.977590        4.83335       0.196293E-001  0.250702        4.23170        5.69638                 NaN            NaN            NaN
  1589.74        500.000        82.0914       0.977586        4.83131       0.196595E-001  0.227973        4.20846        7.64363                 NaN            NaN            NaN
  1586.54        500.000        80.4830       0.977574        4.82647       0.196938E-001  0.203610        4.18079        9.30881                 NaN            NaN            NaN
  1583.33        500.000        78.8748       0.977562        4.82163       0.197280E-001  0.179248        4.15312        10.9740                 NaN            NaN            NaN
  1580.13        500.000        77.2665       0.977550        4.81679       0.197623E-001  0.154887        4.12544        12.6391                 NaN            NaN            NaN
  1576.92        500.000        75.6583       0.977538        4.81195       0.197966E-001  0.130526        4.09777        14.3041                 NaN            NaN            NaN
  1573.72        500.000        74.0501       0.977526        4.80711       0.198309E-001  0.106166        4.07010        15.9692                 NaN            NaN            NaN
  1570.51        500.000        72.4420       0.977514        4.80227       0.198651E-001  0.818066E-001   4.04243        17.6341                 NaN            NaN            NaN
  1567.31        500.000        70.8339       0.977502        4.79743       0.198994E-001  0.574477E-001   4.01476        19.2991                 NaN            NaN            NaN
  1564.10        500.000        69.2258       0.977490        4.79259       0.199337E-001  0.330893E-001   3.98709        20.9640                 NaN            NaN            NaN
  1560.90        500.000        67.8277       0.977471        4.78535       0.199683E-001  0.667337E-002   3.95883        22.4240                 NaN            NaN            NaN
  1557.69        500.000        66.5473       0.977424        4.76822       0.199408E-001            NaN   3.98935        23.6978                 NaN            NaN            NaN
  1554.49        500.000        65.3357       0.977368        4.74744       0.199005E-001            NaN   4.03156        24.8880                 NaN            NaN            NaN
  1551.28        500.000        64.1243       0.977311        4.72666       0.198603E-001            NaN   4.07377        26.0781                 NaN            NaN            NaN
  1548.08        500.000        63.0103       0.977247        4.70326       0.198171E-001            NaN   4.11948        27.1699                 NaN            NaN            NaN
  1544.87        500.000        61.8964       0.977183        4.67986       0.197738E-001            NaN   4.16519        28.2616                 NaN            NaN            NaN
  1541.67        500.000        60.7827       0.977119        4.65646       0.197306E-001            NaN   4.21090        29.3531                 NaN            NaN            NaN
  1538.46        500.000        59.6691       0.977054        4.63307       0.196873E-001            NaN   4.25660        30.4445                 NaN            NaN            NaN
  1535.26        500.000        58.6881       0.976979        4.60564       0.196484E-001            NaN   4.29854        31.4111                 NaN            NaN            NaN
  1532.05        500.000        57.7073       0.976903        4.57822       0.196094E-001            NaN   4.34047        32.3775                 NaN            NaN            NaN
  1528.85        500.000        56.7266       0.976828        4.55080       0.195705E-001            NaN   4.38239        33.3438                 NaN            NaN            NaN
  1525.64        500.000        55.7461       0.976753        4.52338       0.195316E-001            NaN   4.42431        34.3099                 NaN            NaN            NaN
  1522.44        500.000        54.7657       0.976677        4.49597       0.194926E-001            NaN   4.46622        35.2759                 NaN            NaN            NaN
  1519.23        500.000        53.7855       0.976602        4.46857       0.194537E-001            NaN   4.50812        36.2417                 NaN            NaN            NaN
  1516.03        500.000        52.8054       0.976526        4.44117       0.194148E-001            NaN   4.55002        37.2074                 NaN            NaN            NaN
  1512.82        500.000        51.8255       0.976451        4.41377       0.193759E-001            NaN   4.59191        38.1730                 NaN            NaN            NaN
  1509.62        500.000        50.9412       0.976363        4.38207       0.193320E-001            NaN   4.63927        39.0418                 NaN            NaN            NaN
  1506.41        500.000        50.0570       0.976276        4.35038       0.192881E-001            NaN   4.68661        39.9104                 NaN            NaN            NaN
  1503.21        500.000        49.1730       0.976189        4.31869       0.192442E-001            NaN   4.73395        40.7789                 NaN            NaN            NaN
  1500.00        500.000        48.2892       0.976101        4.28701       0.192003E-001            NaN   4.78128        41.6472                 NaN            NaN            NaN
  1496.79        500.000        47.4119       0.976011        4.25450       0.191734E-001            NaN   4.81214        42.3661       0.160147                 NaN            NaN
  1493.59        500.000        46.0888       0.975984        4.24389       0.193195E-001            NaN   4.67411        41.6571        2.34081                 NaN            NaN
  1490.38        500.000        44.7614       0.975954        4.23239       0.194579E-001            NaN   4.54302        40.9318        4.53606                 NaN            NaN
  1487.18        500.000        43.4340       0.975924        4.22088       0.195963E-001            NaN   4.41194        40.2065        6.73117                 NaN            NaN
  1483.97        500.000        42.1023       0.975892        4.20849       0.197243E-001            NaN   4.28997        39.5460        8.85769                 NaN            NaN
  1480.77        500.000        40.3283       0.975938        4.22461       0.199011E-001            NaN   4.11750        39.0127        10.2993        1.02177                 NaN
  1477.56        500.000        40.3283       0.975938        4.22461       0.199011E-001            NaN   4.11750        39.0127        10.2993        1.02177                 NaN
  1474.36        500.000        36.9051       0.976018        4.25225       0.202236E-001            NaN   3.80253        38.2065        3.17573        12.6617                 NaN
  1471.15        500.000        36.9051       0.976018        4.25225       0.202236E-001            NaN   3.80253        38.2065        3.17573        12.6617                 NaN
  1467.95        500.000        36.9051       0.976018        4.25225       0.202236E-001            NaN   3.80253        38.2065        3.17573        12.6617                 NaN
  1464.74        500.000        36.9051       0.976018        4.25225       0.202236E-001            NaN   3.80253        38.2065        3.17573        12.6617                 NaN
  1461.54        500.000        31.0288       0.976018        4.25031       0.206704E-001            NaN   3.36494        37.3670        15.9250        7.06726                 NaN
  1458.33        500.000        31.0288       0.976018        4.25031       0.206704E-001            NaN   3.36494        37.3670        15.9250        7.06726                 NaN
  1455.13        500.000        31.0288       0.976018        4.25031       0.206704E-001            NaN   3.36494        37.3670        15.9250        7.06726                 NaN
  1451.92        500.000        31.0288       0.976018        4.25031       0.206704E-001            NaN   3.36494        37.3670        15.9250        7.06726                 NaN
  1448.72        500.000        26.1934       0.975818        4.17724       0.208879E-001            NaN   3.15174        37.3300        17.6785        10.4724                 NaN
  1445.51        500.000        24.1494       0.975860        4.19165       0.209263E-001            NaN   3.11489        37.2222        18.5706        11.3186       0.436002     
  1442.31        500.000        21.5659       0.975956        4.22530       0.209315E-001            NaN   3.11203        36.9821        12.1010        19.8229        1.19382     
  1439.10        500.000        21.5659       0.975956        4.22530       0.209315E-001            NaN   3.11203        36.9821        12.1010        19.8229        1.19382     
  1435.90        500.000        17.6180       0.975950        4.22156       0.207800E-001            NaN   3.26803        36.4773        13.2793        21.7537        2.38542     
  1432.69        500.000        17.6180       0.975950        4.22156       0.207800E-001            NaN   3.26803        36.4773        13.2793        21.7537        2.38542     
  1429.49        500.000        17.6180       0.975950        4.22156       0.207800E-001            NaN   3.26803        36.4773        13.2793        21.7537        2.38542     
  1426.28        500.000        17.6180       0.975950        4.22156       0.207800E-001            NaN   3.26803        36.4773        13.2793        21.7537        2.38542     
  1423.08        500.000        17.6180       0.975950        4.22156       0.207800E-001            NaN   3.26803        36.4773        13.2793        21.7537        2.38542     
  1419.87        500.000        17.6180       0.975950        4.22156       0.207800E-001            NaN   3.26803        36.4773        13.2793        21.7537        2.38542     
  1416.67        500.000        17.6180       0.975950        4.22156       0.207800E-001            NaN   3.26803        36.4773        13.2793        21.7537        2.38542     
  1413.46        500.000        17.6180       0.975950        4.22156       0.207800E-001            NaN   3.26803        36.4773        13.2793        21.7537        2.38542     
  1410.26        500.000        9.29782       0.974543        3.71010       0.190095E-001            NaN   5.05696        34.3310        15.6093        25.8211        5.18022     
  1407.05        500.000        9.29782       0.974543        3.71010       0.190095E-001            NaN   5.05696        34.3310        15.6093        25.8211        5.18022     
  1403.85        500.000        9.29782       0.974543        3.71010       0.190095E-001            NaN   5.05696        34.3310        15.6093        25.8211        5.18022     
  1400.64        500.000        9.29782       0.974543        3.71010       0.190095E-001            NaN   5.05696        34.3310        15.6093        25.8211        5.18022     
  1397.44        500.000        9.29782       0.974543        3.71010       0.190095E-001            NaN   5.05696        34.3310        15.6093        25.8211        5.18022     
  1394.23        500.000        9.29782       0.974543        3.71010       0.190095E-001            NaN   5.05696        34.3310        15.6093        25.8211        5.18022     
  1391.03        500.000        9.29782       0.974543        3.71010       0.190095E-001            NaN   5.05696        34.3310        15.6093        25.8211        5.18022     
  1387.82        500.000        9.29782       0.974543        3.71010       0.190095E-001            NaN   5.05696        34.3310        15.6093        25.8211        5.18022     
  1384.62        500.000        5.32090       0.971917        2.76065       0.161147E-001            NaN   7.97600        31.8219        16.5000        27.7775        6.85492     
  1381.41        500.000        4.94685       0.971498        2.60894       0.156709E-001  0.196083E-001   8.42144        31.3113        16.5580        28.1082        7.03846     
  1378.21        500.000        4.58809       0.971042        2.44443       0.151987E-001  0.550408E-001   8.89363        30.6487        28.5622        16.5991        7.22259     
  1375.00        500.000        4.58809       0.971042        2.44443       0.151987E-001  0.550408E-001   8.89363        30.6487        28.5622        16.5991        7.22259     
  1371.79        500.000        3.91863       0.970076        2.09508       0.141945E-001  0.127124        9.89700        29.2760        29.4668        16.6539        7.58125     
  1368.59        500.000        3.91863       0.970076        2.09508       0.141945E-001  0.127124        9.89700        29.2760        29.4668        16.6539        7.58125     
  1365.38        500.000        3.91863       0.970076        2.09508       0.141945E-001  0.127124        9.89700        29.2760        29.4668        16.6539        7.58125     
  1362.18        500.000        3.91863       0.970076        2.09508       0.141945E-001  0.127124        9.89700        29.2760        29.4668        16.6539        7.58125     
  1358.97        500.000        2.73464       0.967896        1.30775       0.119236E-001  0.277645        12.1631        26.3050        16.6745        31.2897        8.26783     
  1355.77        500.000        2.73464       0.967896        1.30775       0.119236E-001  0.277645        12.1631        26.3050        16.6745        31.2897        8.26783     
  1352.56        500.000        2.73464       0.967896        1.30775       0.119236E-001  0.277645        12.1631        26.3050        16.6745        31.2897        8.26783     
  1349.36        500.000        2.73464       0.967896        1.30775       0.119236E-001  0.277645        12.1631        26.3050        16.6745        31.2897        8.26783     
  1346.15        500.000        1.69927       0.965341       0.384564       0.924286E-002  0.437642        14.8350        22.9700        33.1923        16.5756        8.93100     
  1342.95        500.000        1.45877       0.964632       0.128557       0.849526E-002  0.479778        15.5789        22.0627        33.6892        16.5349        9.09400     
  1339.74        500.000        1.22847       0.964276                 NaN  0.811891E-002  0.501650        15.9482        21.6106        16.5110        33.9880        9.23966     
  1336.54        500.000        1.22847       0.964276                 NaN  0.811891E-002  0.501650        15.9482        21.6106        16.5110        33.9880        9.23966     
  1333.33        500.000       0.798040       0.964277                 NaN  0.811753E-002  0.504574        15.9288        21.6404        16.5024        34.1615        9.49184     
  1330.13        500.000       0.798040       0.964277                 NaN  0.811753E-002  0.504574        15.9288        21.6404        16.5024        34.1615        9.49184     
  1326.92        500.000       0.798040       0.964277                 NaN  0.811753E-002  0.504574        15.9288        21.6404        16.5024        34.1615        9.49184     
  1323.72        500.000       0.798040       0.964277                 NaN  0.811753E-002  0.504574        15.9288        21.6404        16.5024        34.1615        9.49184     
  1320.51        500.000       0.276991E-001  0.964277                 NaN  0.812182E-002  0.508984        15.8815        21.7175        16.4662        34.4652        9.96044     
  1317.31        500.000                 NaN  0.964277                 NaN  0.810174E-002  0.504359        15.8909        21.9511        16.5293        34.1647        9.98722     
  1314.10        500.000                 NaN  0.964277                 NaN  0.807778E-002  0.499893        15.9037        22.2002        16.5860        33.8369        10.0010     
  1310.90        500.000                 NaN  0.964277                 NaN  0.807778E-002  0.499893        15.9037        22.2002        16.5860        33.8369        10.0010     
  1307.69        500.000                 NaN  0.964277                 NaN  0.802759E-002  0.490235        15.9308        22.7088        33.1654        16.7052        10.0273     
  1304.49        500.000                 NaN  0.964277                 NaN  0.802759E-002  0.490235        15.9308        22.7088        33.1654        16.7052        10.0273     
  1301.28        500.000                 NaN  0.964277                 NaN  0.802759E-002  0.490235        15.9308        22.7088        33.1654        16.7052        10.0273     
  1298.08        500.000                 NaN  0.964277                 NaN  0.802759E-002  0.490235        15.9308        22.7088        33.1654        16.7052        10.0273     
  1294.87        500.000                 NaN  0.964277                 NaN  0.802759E-002  0.490235        15.9308        22.7088        33.1654        16.7052        10.0273     
  1291.67        500.000                 NaN  0.964277                 NaN  0.802759E-002  0.490235        15.9308        22.7088        33.1654        16.7052        10.0273     
  1288.46        500.000                 NaN  0.964277                 NaN  0.802759E-002  0.490235        15.9308        22.7088        33.1654        16.7052        10.0273     
  1285.26        500.000                 NaN  0.964277                 NaN  0.802759E-002  0.490235        15.9308        22.7088        33.1654        16.7052        10.0273     
  1282.05        500.000                 NaN  0.964276                 NaN  0.783979E-002  0.461347        16.0255        24.5688        30.7547        17.0938        10.1239     
  1278.85        500.000                 NaN  0.964276                 NaN  0.783979E-002  0.461347        16.0255        24.5688        30.7547        17.0938        10.1239     
  1275.64        500.000                 NaN  0.964276                 NaN  0.783979E-002  0.461347        16.0255        24.5688        30.7547        17.0938        10.1239     
  1272.44        500.000                 NaN  0.964276                 NaN  0.783979E-002  0.461347        16.0255        24.5688        30.7547        17.0938        10.1239     
  1269.23        500.000                 NaN  0.964276                 NaN  0.783979E-002  0.461347        16.0255        24.5688        30.7547        17.0938        10.1239     
  1266.03        500.000                 NaN  0.964276                 NaN  0.783979E-002  0.461347        16.0255        24.5688        30.7547        17.0938        10.1239     
  1262.82        500.000                 NaN  0.964276                 NaN  0.783979E-002  0.461347        16.0255        24.5688        30.7547        17.0938        10.1239     
  1259.62        500.000                 NaN  0.964276                 NaN  0.783979E-002  0.461347        16.0255        24.5688        30.7547        17.0938        10.1239     
  1256.41        500.000                 NaN  0.964276                 NaN  0.765554E-002  0.442996        16.1066        26.2163        28.6681        17.3803        10.2137     
  1253.21        500.000                 NaN  0.964276                 NaN  0.765554E-002  0.442996        16.1066        26.2163        28.6681        17.3803        10.2137     
  1250.00        500.000                 NaN  0.964276                 NaN  0.765554E-002  0.442996        16.1066        26.2163        28.6681        17.3803        10.2137     
  1246.79        500.000                 NaN  0.964276                 NaN  0.765554E-002  0.442996        16.1066        26.2163        28.6681        17.3803        10.2137     
  1243.59        500.000                 NaN  0.964276                 NaN  0.765554E-002  0.442996        16.1066        26.2163        28.6681        17.3803        10.2137     
  1240.38        500.000                 NaN  0.964276                 NaN  0.765554E-002  0.442996        16.1066        26.2163        28.6681        17.3803        10.2137     
  1237.18        500.000                 NaN  0.964276                 NaN  0.765554E-002  0.442996        16.1066        26.2163        28.6681        17.3803        10.2137     
  1233.97        500.000                 NaN  0.964276                 NaN  0.765554E-002  0.442996        16.1066        26.2163        28.6681        17.3803        10.2137     
  1230.77        500.000                 NaN  0.964276                 NaN  0.747353E-002  0.434734        16.1769        27.6769        17.5766        26.8625        10.3006     
  1227.56        500.000                 NaN  0.964276                 NaN  0.747353E-002  0.434734        16.1769        27.6769        17.5766        26.8625        10.3006     
  1224.36        500.000                 NaN  0.964276                 NaN  0.747353E-002  0.434734        16.1769        27.6769        17.5766        26.8625        10.3006     
  1221.15        500.000                 NaN  0.964276                 NaN  0.747353E-002  0.434734        16.1769        27.6769        17.5766        26.8625        10.3006     
  1217.95        500.000                 NaN  0.964276                 NaN  0.747353E-002  0.434734        16.1769        27.6769        17.5766        26.8625        10.3006     
  1214.74        500.000                 NaN  0.964276                 NaN  0.747353E-002  0.434734        16.1769        27.6769        17.5766        26.8625        10.3006     
  1211.54        500.000                 NaN  0.964276                 NaN  0.747353E-002  0.434734        16.1769        27.6769        17.5766        26.8625        10.3006     
  1208.33        500.000                 NaN  0.964276                 NaN  0.747353E-002  0.434734        16.1769        27.6769        17.5766        26.8625        10.3006     
  1205.13        500.000                 NaN  0.964276                 NaN  0.729297E-002  0.435479        16.2380        28.9874        25.2727        17.7090        10.3859     
  1201.92        500.000                 NaN  0.964276                 NaN  0.729297E-002  0.435479        16.2380        28.9874        25.2727        17.7090        10.3859     
  1198.72        500.000                 NaN  0.964276                 NaN  0.729297E-002  0.435479        16.2380        28.9874        25.2727        17.7090        10.3859     
  1195.51        500.000                 NaN  0.964276                 NaN  0.729297E-002  0.435479        16.2380        28.9874        25.2727        17.7090        10.3859     
  1192.31        500.000                 NaN  0.964276                 NaN  0.729297E-002  0.435479        16.2380        28.9874        25.2727        17.7090        10.3859     
  1189.10        500.000                 NaN  0.964276                 NaN  0.729297E-002  0.435479        16.2380        28.9874        25.2727        17.7090        10.3859     
  1185.90        500.000                 NaN  0.964276                 NaN  0.729297E-002  0.435479        16.2380        28.9874        25.2727        17.7090        10.3859     
  1182.69        500.000                 NaN  0.964276                 NaN  0.729297E-002  0.435479        16.2380        28.9874        25.2727        17.7090        10.3859     
  1179.49        500.000                 NaN  0.964276                 NaN  0.711114E-002  0.443665        16.2907        30.1825        17.8032        23.8417        10.4668     
  1176.28        500.000                 NaN  0.964276                 NaN  0.711114E-002  0.443665        16.2907        30.1825        17.8032        23.8417        10.4668     
  1173.08        500.000                 NaN  0.964276                 NaN  0.711114E-002  0.443665        16.2907        30.1825        17.8032        23.8417        10.4668     
  1169.87        500.000                 NaN  0.964276                 NaN  0.711114E-002  0.443665        16.2907        30.1825        17.8032        23.8417        10.4668     
  1166.67        500.000                 NaN  0.964276                 NaN  0.711114E-002  0.443665        16.2907        30.1825        17.8032        23.8417        10.4668     
  1163.46        500.000                 NaN  0.964276                 NaN  0.711114E-002  0.443665        16.2907        30.1825        17.8032        23.8417        10.4668     
  1160.26        500.000                 NaN  0.964276                 NaN  0.711114E-002  0.443665        16.2907        30.1825        17.8032        23.8417        10.4668     
  1157.05        500.000                 NaN  0.964276                 NaN  0.711114E-002  0.443665        16.2907        30.1825        17.8032        23.8417        10.4668     
  1153.85        500.000                 NaN  0.964276                 NaN  0.693061E-002  0.457750        16.3352        31.2883        22.5347        17.8695        10.5434     
  1150.64        500.000                 NaN  0.964276                 NaN  0.693061E-002  0.457750        16.3352        31.2883        22.5347        17.8695        10.5434     
  1147.44        500.000                 NaN  0.964276                 NaN  0.693061E-002  0.457750        16.3352        31.2883        22.5347        17.8695        10.5434     
  1144.23        500.000                 NaN  0.964276                 NaN  0.693061E-002  0.457750        16.3352        31.2883        22.5347        17.8695        10.5434     
  1141.03        500.000                 NaN  0.964276                 NaN  0.693061E-002  0.457750        16.3352        31.2883        22.5347        17.8695        10.5434     
  1137.82        500.000                 NaN  0.964276                 NaN  0.693061E-002  0.457750        16.3352        31.2883        22.5347        17.8695        10.5434     
  1134.62        500.000                 NaN  0.964276                 NaN  0.693061E-002  0.457750        16.3352        31.2883        22.5347        17.8695        10.5434     
  1131.41        500.000                 NaN  0.964276                 NaN  0.693061E-002  0.457750        16.3352        31.2883        22.5347        17.8695        10.5434     
  1128.21        500.000                 NaN  0.964276                 NaN  0.674757E-002  0.478634        16.3743        32.3106        17.9008        21.3446        10.6201     
  1125.00        500.000                 NaN  0.964276                 NaN  0.674757E-002  0.478634        16.3743        32.3106        17.9008        21.3446        10.6201     
  1121.79        500.000                 NaN  0.964276                 NaN  0.674757E-002  0.478634        16.3743        32.3106        17.9008        21.3446        10.6201     
  1118.59        500.000                 NaN  0.964276                 NaN  0.674757E-002  0.478634        16.3743        32.3106        17.9008        21.3446        10.6201     
  1115.38        500.000                 NaN  0.964276                 NaN  0.674757E-002  0.478634        16.3743        32.3106        17.9008        21.3446        10.6201     
  1112.18        500.000                 NaN  0.964276                 NaN  0.674757E-002  0.478634        16.3743        32.3106        17.9008        21.3446        10.6201     
  1108.97        500.000                 NaN  0.964276                 NaN  0.674757E-002  0.478634        16.3743        32.3106        17.9008        21.3446        10.6201     
  1105.77        500.000                 NaN  0.964276                 NaN  0.674757E-002  0.478634        16.3743        32.3106        17.9008        21.3446        10.6201     
  1102.56        500.000                 NaN  0.964276                 NaN  0.656450E-002  0.504783        16.4059        33.2725        20.2366        17.9165        10.6928     
  1099.36        500.000                 NaN  0.964276                 NaN  0.656450E-002  0.504783        16.4059        33.2725        20.2366        17.9165        10.6928     
  1096.15        500.000                 NaN  0.964276                 NaN  0.656450E-002  0.504783        16.4059        33.2725        20.2366        17.9165        10.6928     
  1092.95        500.000                 NaN  0.964276                 NaN  0.656450E-002  0.504783        16.4059        33.2725        20.2366        17.9165        10.6928     
  1089.74        500.000                 NaN  0.964276                 NaN  0.656450E-002  0.504783        16.4059        33.2725        20.2366        17.9165        10.6928     
  1086.54        500.000                 NaN  0.964276                 NaN  0.656450E-002  0.504783        16.4059        33.2725        20.2366        17.9165        10.6928     
  1083.33        500.000                 NaN  0.964276                 NaN  0.656450E-002  0.504783        16.4059        33.2725        20.2366        17.9165        10.6928     
  1080.13        500.000                 NaN  0.964276                 NaN  0.656450E-002  0.504783        16.4059        33.2725        20.2366        17.9165        10.6928     
  1076.92        500.000                 NaN  0.964276                 NaN  0.637953E-002  0.536494        16.4320        34.1786        19.2047        17.9131        10.7644     
  1073.72        500.000                 NaN  0.964276                 NaN  0.637953E-002  0.536494        16.4320        34.1786        19.2047        17.9131        10.7644     
  1070.51        500.000                 NaN  0.964276                 NaN  0.637953E-002  0.536494        16.4320        34.1786        19.2047        17.9131        10.7644     
  1067.31        500.000                 NaN  0.964276                 NaN  0.637953E-002  0.536494        16.4320        34.1786        19.2047        17.9131        10.7644     
  1064.10        500.000                 NaN  0.964276                 NaN  0.637953E-002  0.536494        16.4320        34.1786        19.2047        17.9131        10.7644     
  1060.90        500.000                 NaN  0.964276                 NaN  0.637953E-002  0.536494        16.4320        34.1786        19.2047        17.9131        10.7644     
  1057.69        500.000                 NaN  0.964276                 NaN  0.637953E-002  0.536494        16.4320        34.1786        19.2047        17.9131        10.7644     
  1054.49        500.000                 NaN  0.964276                 NaN  0.637953E-002  0.536494        16.4320        34.1786        19.2047        17.9131        10.7644     
  1051.28        500.000                 NaN  0.964276                 NaN  0.619350E-002  0.574068        16.4525        35.0364        18.2403        17.8903        10.8359     
  1048.08        500.000                 NaN  0.964276                 NaN  0.619350E-002  0.574068        16.4525        35.0364        18.2403        17.8903        10.8359     
  1044.87        500.000                 NaN  0.964276                 NaN  0.619350E-002  0.574068        16.4525        35.0364        18.2403        17.8903        10.8359     
  1041.67        500.000                 NaN  0.964276                 NaN  0.619350E-002  0.574068        16.4525        35.0364        18.2403        17.8903        10.8359     
  1038.46        500.000                 NaN  0.964276                 NaN  0.619350E-002  0.574068        16.4525        35.0364        18.2403        17.8903        10.8359     
  1035.26        500.000                 NaN  0.964276                 NaN  0.619350E-002  0.574068        16.4525        35.0364        18.2403        17.8903        10.8359     
  1032.05        500.000                 NaN  0.964276                 NaN  0.619350E-002  0.574068        16.4525        35.0364        18.2403        17.8903        10.8359     
  1028.85        500.000                 NaN  0.964276                 NaN  0.619350E-002  0.574068        16.4525        35.0364        18.2403        17.8903        10.8359     
  1025.64        500.000                 NaN  0.964276                 NaN  0.600515E-002  0.616670        16.4681        35.8569        17.3264        17.8554        10.9063     
  1022.44        500.000                 NaN  0.964276                 NaN  0.600515E-002  0.616670        16.4681        35.8569        17.3264        17.8554        10.9063     
  1019.23        500.000                 NaN  0.964276                 NaN  0.600515E-002  0.616670        16.4681        35.8569        17.3264        17.8554        10.9063     
  1016.03        500.000                 NaN  0.964276                 NaN  0.600515E-002  0.616670        16.4681        35.8569        17.3264        17.8554        10.9063     
  1012.82        500.000                 NaN  0.964276                 NaN  0.600515E-002  0.616670        16.4681        35.8569        17.3264        17.8554        10.9063     
  1009.62        500.000                 NaN  0.964276                 NaN  0.600515E-002  0.616670        16.4681        35.8569        17.3264        17.8554        10.9063     
  1006.41        500.000                 NaN  0.964276                 NaN  0.600515E-002  0.616670        16.4681        35.8569        17.3264        17.8554        10.9063     
  1003.21        500.000                 NaN  0.964276                 NaN  0.600515E-002  0.616670        16.4681        35.8569        17.3264        17.8554        10.9063     
  1000.00        500.000                 NaN  0.964277                 NaN  0.581876E-002  0.664125        16.4764        36.6463        17.8152        16.4557        10.9722     
