|6.6.6
Archiving\03_Data\DfracLP/QFM_m0.75/K22/K22_6.tab                     
           1
T(K)    
  0.000000000000000E+000
  0.000000000000000E+000
           0
           3
T(K)           P(bar)         rho,kg/m3     
  2000.00        500.000        3233.65     
  1997.49        500.000        2886.24     
  1994.99        500.000        2886.88     
  1992.48        500.000        2887.46     
  1989.97        500.000        2888.04     
  1987.47        500.000        2888.62     
  1984.96        500.000        2889.19     
  1982.46        500.000        2889.79     
  1979.95        500.000        2890.37     
  1977.44        500.000        2890.98     
  1974.94        500.000        2891.55     
  1972.43        500.000        2892.12     
  1969.92        500.000        2892.70     
  1967.42        500.000        2893.29     
  1964.91        500.000        2893.87     
  1962.41        500.000        2894.45     
  1959.90        500.000        2895.03     
  1957.39        500.000        2895.62     
  1954.89        500.000        4264.47     
  1952.38        500.000        2896.78     
  1949.87        500.000        2897.36     
  1947.37        500.000        2897.94     
  1944.86        500.000        2898.53     
  1942.36        500.000        2899.11     
  1939.85        500.000        2899.82     
  1937.34        500.000        2900.27     
  1934.84        500.000        3115.00     
  1932.33        500.000        3116.43     
  1929.82        500.000        3117.72     
  1927.32        500.000        3119.04     
  1924.81        500.000        3120.67     
  1922.31        500.000        3121.93     
  1919.80        500.000        3123.36     
  1917.29        500.000        3124.48     
  1914.79        500.000        3125.88     
  1912.28        500.000        3128.68     
  1909.77        500.000        3136.77     
  1907.27        500.000        3151.62     
  1904.76        500.000        3153.01     
  1902.26        500.000        3154.37     
  1899.75        500.000        3155.56     
  1897.24        500.000        3157.65     
  1894.74        500.000        3157.69     
  1892.23        500.000        3162.47     
  1889.72        500.000        3162.31     
  1887.22        500.000        3163.60     
  1884.71        500.000        3165.31     
  1882.21        500.000        3166.60     
  1879.70        500.000        3231.18     
  1877.19        500.000        3166.45     
  1874.69        500.000        3171.44     
  1872.18        500.000        3173.33     
  1869.67        500.000        3174.33     
  1867.17        500.000        3176.80     
  1864.66        500.000        3177.66     
  1862.16        500.000        3178.52     
  1859.65        500.000        3180.90     
  1857.14        500.000        3181.78     
  1854.64        500.000        3183.79     
  1852.13        500.000        3183.69     
  1849.62        500.000        3185.69     
  1847.12        500.000        3188.23     
  1844.61        500.000        3189.61     
  1842.11        500.000        3191.17     
  1839.60        500.000        3192.91     
  1837.09        500.000        3194.50     
  1834.59        500.000        3196.23     
  1832.08        500.000        3197.59     
  1829.57        500.000        3199.22     
  1827.07        500.000        3200.44     
  1824.56        500.000        3202.30     
  1822.06        500.000        3203.96     
  1819.55        500.000        3205.14     
  1817.04        500.000        3207.02     
  1814.54        500.000        3208.28     
  1812.03        500.000        3209.87     
  1809.52        500.000        3211.49     
  1807.02        500.000        3212.87     
  1804.51        500.000        3214.56     
  1802.01        500.000        3216.54     
  1799.50        500.000        3218.12     
  1796.99        500.000        3219.20     
  1794.49        500.000        3220.84     
  1791.98        500.000        3222.79     
  1789.47        500.000        3224.40     
  1786.97        500.000        3225.79     
  1784.46        500.000        3233.78     
  1781.95        500.000        3211.28     
  1779.45        500.000        3233.82     
  1776.94        500.000        3210.30     
  1774.44        500.000        3233.15     
  1771.93        500.000        3235.51     
  1769.42        500.000        3236.80     
  1766.92        500.000        3238.97     
  1764.41        500.000        3240.24     
  1761.90        500.000        3242.56     
  1759.40        500.000        3222.90     
  1756.89        500.000        3246.87     
  1754.39        500.000        3246.48     
  1751.88        500.000        3248.17     
  1749.37        500.000        3248.34     
  1746.87        500.000        3251.39     
  1744.36        500.000        3253.15     
  1741.85        500.000        3254.38     
  1739.35        500.000        3255.49     
  1736.84        500.000        3257.18     
  1734.34        500.000        3259.35     
  1731.83        500.000        3260.71     
  1729.32        500.000        3262.28     
  1726.82        500.000        3263.31     
  1724.31        500.000        3266.41     
  1721.80        500.000        3266.63     
  1719.30        500.000        3268.81     
  1716.79        500.000        3270.10     
  1714.29        500.000        3272.00     
  1711.78        500.000        3274.02     
  1709.27        500.000        3274.61     
  1706.77        500.000        3276.29     
  1704.26        500.000        3307.94     
  1701.75        500.000        2895.46     
  1699.25        500.000        3279.32     
  1696.74        500.000        3282.75     
  1694.24        500.000        3285.38     
  1691.73        500.000        3285.22     
  1689.22        500.000        3286.83     
  1686.72        500.000        3288.56     
  1684.21        500.000        3290.38     
  1681.70        500.000        3291.02     
  1679.20        500.000        3293.09     
  1676.69        500.000        3295.35     
  1674.19        500.000        3293.86     
  1671.68        500.000        3297.91     
  1669.17        500.000        3299.42     
  1666.67        500.000        3301.04     
  1664.16        500.000        3302.29     
  1661.65        500.000        3292.78     
  1659.15        500.000        3305.18     
  1656.64        500.000        3306.42     
  1654.14        500.000        3309.30     
  1651.63        500.000        3310.29     
  1649.12        500.000        3311.11     
  1646.62        500.000        3313.10     
  1644.11        500.000        3314.65     
  1641.60        500.000        3315.72     
  1639.10        500.000        3316.87     
  1636.59        500.000        3319.32     
  1634.09        500.000        3320.51     
  1631.58        500.000        3322.22     
  1629.07        500.000        3323.30     
  1626.57        500.000        3337.09     
  1624.06        500.000        3325.89     
  1621.55        500.000        3327.22     
  1619.05        500.000        3328.85     
  1616.54        500.000        3330.74     
  1614.04        500.000        3332.03     
  1611.53        500.000        3302.17     
  1609.02        500.000        3234.91     
  1606.52        500.000        3234.05     
  1604.01        500.000        3235.37     
  1601.50        500.000        3236.36     
  1599.00        500.000        3237.74     
  1596.49        500.000        3238.33     
  1593.98        500.000        3239.49     
  1591.48        500.000        3240.17     
  1588.97        500.000        3241.59     
  1586.47        500.000        3241.94     
  1583.96        500.000        3242.43     
  1581.45        500.000        3337.12     
  1578.95        500.000        3242.86     
  1576.44        500.000        3246.11     
  1573.93        500.000        3246.39     
  1571.43        500.000        3246.72     
  1568.92        500.000        3248.10     
  1566.42        500.000        3249.54     
  1563.91        500.000        3250.32     
  1561.40        500.000        3251.33     
  1558.90        500.000        3251.98     
  1556.39        500.000        3252.59     
  1553.88        500.000        3253.71     
  1551.38        500.000        3254.48     
  1548.87        500.000        3255.01     
  1546.37        500.000        3256.46     
  1543.86        500.000        3256.80     
  1541.35        500.000        3258.37     
  1538.85        500.000        3258.71     
  1536.34        500.000        3259.81     
  1533.83        500.000        3260.21     
  1531.33        500.000        3261.44     
  1528.82        500.000        3262.07     
  1526.32        500.000        3262.81     
  1523.81        500.000        3263.10     
  1521.30        500.000        3265.44     
  1518.80        500.000        3267.74     
  1516.29        500.000        3268.30     
  1513.78        500.000        3268.28     
  1511.28        500.000        3269.18     
  1508.77        500.000        3270.80     
  1506.27        500.000        3271.52     
  1503.76        500.000        3271.89     
  1501.25        500.000        3274.04     
  1498.75        500.000        3275.00     
  1496.24        500.000        3276.16     
  1493.73        500.000        3277.25     
  1491.23        500.000        3277.97     
  1488.72        500.000        3278.55     
  1486.22        500.000        3280.90     
  1483.71        500.000        3281.28     
  1481.20        500.000        3282.75     
  1478.70        500.000        3283.95     
  1476.19        500.000        3284.76     
  1473.68        500.000        3285.98     
  1471.18        500.000        3270.79     
  1468.67        500.000        3271.16     
  1466.17        500.000        3273.23     
  1463.66        500.000        3275.23     
  1461.15        500.000        3276.47     
  1458.65        500.000        3264.05     
  1456.14        500.000        3262.02     
  1453.63        500.000        3264.58     
  1451.13        500.000        3266.75     
  1448.62        500.000        3269.00     
  1446.12        500.000        3271.08     
  1443.61        500.000        3273.08     
  1441.10        500.000        3275.27     
  1438.60        500.000        3277.79     
  1436.09        500.000        3279.96     
  1433.58        500.000        3282.14     
  1431.08        500.000        3284.44     
  1428.57        500.000        3286.76     
  1426.07        500.000        3289.45     
  1423.56        500.000        3291.48     
  1421.05        500.000        3293.67     
  1418.55        500.000        3172.37     
  1416.04        500.000        3119.16     
  1413.53        500.000        3121.85     
  1411.03        500.000        3124.76     
  1408.52        500.000        3127.56     
  1406.02        500.000        3130.07     
  1403.51        500.000        3133.21     
  1401.00        500.000        3135.84     
  1398.50        500.000        3138.73     
  1395.99        500.000        3141.37     
  1393.48        500.000        3144.23     
  1390.98        500.000        3146.99     
  1388.47        500.000        3149.92     
  1385.96        500.000        3152.35     
  1383.46        500.000        3155.25     
  1380.95        500.000        3157.98     
  1378.45        500.000        3175.79     
  1375.94        500.000        3184.13     
  1373.43        500.000        3188.03     
  1370.93        500.000        3192.05     
  1368.42        500.000        3195.91     
  1365.91        500.000        3200.15     
  1363.41        500.000        3204.25     
  1360.90        500.000        3208.16     
  1358.40        500.000        3212.14     
  1355.89        500.000        3216.47     
  1353.38        500.000        3220.46     
  1350.88        500.000        3224.50     
  1348.37        500.000        3228.54     
  1345.86        500.000        3232.81     
  1343.36        500.000        3236.62     
  1340.85        500.000        3240.51     
  1338.35        500.000        3244.63     
  1335.84        500.000        3248.54     
  1333.33        500.000        3252.26     
  1330.83        500.000        3256.11     
  1328.32        500.000        3259.89     
  1325.81        500.000        3263.43     
  1323.31        500.000        3267.00     
  1320.80        500.000        3270.47     
  1318.30        500.000        3273.80     
  1315.79        500.000        3276.73     
  1313.28        500.000        3254.27     
  1310.78        500.000        3287.67     
  1308.27        500.000        3290.26     
  1305.76        500.000        3293.10     
  1303.26        500.000        3295.92     
  1300.75        500.000        3298.56     
  1298.25        500.000        3300.10     
  1295.74        500.000        3303.39     
  1293.23        500.000        3299.89     
  1290.73        500.000        3301.53     
  1288.22        500.000        3303.01     
  1285.71        500.000        3304.30     
  1283.21        500.000        3305.58     
  1280.70        500.000        3306.28     
  1278.20        500.000        3516.37     
  1275.69        500.000        3177.09     
  1273.18        500.000        3198.68     
  1270.68        500.000        3203.05     
  1268.17        500.000        3207.96     
  1265.66        500.000        3224.32     
  1263.16        500.000        3252.56     
  1260.65        500.000        3253.70     
  1258.15        500.000        3267.58     
  1255.64        500.000        3304.99     
  1253.13        500.000        3303.82     
  1250.63        500.000        2821.41     
  1248.12        500.000        2809.21     
  1245.61        500.000        2824.77     
  1243.11        500.000        2836.13     
  1240.60        500.000        2834.56     
  1238.10        500.000        2832.96     
  1235.59        500.000        2831.37     
  1233.08        500.000        2829.80     
  1230.58        500.000        2828.58     
  1228.07        500.000        2827.07     
  1225.56        500.000        2823.87     
  1223.06        500.000        2814.16     
  1220.55        500.000        2815.43     
  1218.05        500.000        2814.75     
  1215.54        500.000        2815.54     
  1213.03        500.000        2816.17     
  1210.53        500.000        2792.84     
  1208.02        500.000        2871.06     
  1205.51        500.000        2853.36     
  1203.01        500.000        2778.00     
  1200.50        500.000        2814.94     
  1197.99        500.000        2813.27     
  1195.49        500.000        2824.86     
  1192.98        500.000        2807.94     
  1190.48        500.000        2791.46     
  1187.97        500.000        2907.10     
  1185.46        500.000        2664.47     
  1182.96        500.000        2637.12     
  1180.45        500.000        2637.17     
  1177.94        500.000        2637.23     
  1175.44        500.000        2637.29     
  1172.93        500.000        2637.36     
  1170.43        500.000        2637.43     
  1167.92        500.000        2637.50     
  1165.41        500.000        2637.57     
  1162.91        500.000        2637.64     
  1160.40        500.000        2637.72     
  1157.89        500.000        2637.80     
  1155.39        500.000        2637.84     
  1152.88        500.000        2637.91     
  1150.38        500.000        2638.03     
  1147.87        500.000        2638.11     
  1145.36        500.000        2638.19     
  1142.86        500.000        2638.29     
  1140.35        500.000        2638.36     
  1137.84        500.000        2638.44     
  1135.34        500.000        2638.51     
  1132.83        500.000        2638.59     
  1130.33        500.000        2638.72     
  1127.82        500.000        2638.81     
  1125.31        500.000        2638.89     
  1122.81        500.000        2638.93     
  1120.30        500.000        2639.07     
  1117.79        500.000        2639.15     
  1115.29        500.000        2639.24     
  1112.78        500.000        2639.26     
  1110.28        500.000        2639.34     
  1107.77        500.000        2639.45     
  1105.26        500.000        2639.51     
  1102.76        500.000        2639.68     
  1100.25        500.000        2639.77     
  1097.74        500.000        2639.86     
  1095.24        500.000        2639.94     
  1092.73        500.000        2640.03     
  1090.23        500.000        2640.12     
  1087.72        500.000        2640.21     
  1085.21        500.000        2640.31     
  1082.71        500.000        2640.39     
  1080.20        500.000        2640.50     
  1077.69        500.000        2640.58     
  1075.19        500.000        2640.67     
  1072.68        500.000        2640.76     
  1070.18        500.000        2640.86     
  1067.67        500.000        2640.94     
  1065.16        500.000        2641.04     
  1062.66        500.000        2641.13     
  1060.15        500.000        2641.22     
  1057.64        500.000        2641.31     
  1055.14        500.000        2641.41     
  1052.63        500.000        2641.50     
  1050.13        500.000        2641.59     
  1047.62        500.000        2641.69     
  1045.11        500.000        2641.78     
  1042.61        500.000        2641.87     
  1040.10        500.000        2641.97     
  1037.59        500.000        2642.06     
  1035.09        500.000        2642.16     
  1032.58        500.000        2642.24     
  1030.08        500.000        2642.34     
  1027.57        500.000        2642.44     
  1025.06        500.000        2642.53     
  1022.56        500.000        2642.62     
  1020.05        500.000        2642.72     
  1017.54        500.000        2642.81     
  1015.04        500.000        2642.90     
  1012.53        500.000        2643.00     
  1010.03        500.000        2643.09     
  1007.52        500.000        2643.19     
  1005.01        500.000        2643.28     
  1002.51        500.000        2643.37     
  1000.00        500.000        2643.47     
