|6.6.6
Archiving\03_Data\eqLP/QFM_m3.75/KHA22/KHA22_6.tab                        
           1
T(K)    
  0.000000000000000E+000
  0.000000000000000E+000
           0
           3
T(K)           P(bar)         rho,kg/m3     
  2000.00        500.000        5145.98     
  1996.79        500.000        5146.94     
  1993.59        500.000        5147.91     
  1990.38        500.000        5148.87     
  1987.18        500.000        5149.84     
  1983.97        500.000        5150.80     
  1980.77        500.000        5151.76     
  1977.56        500.000        5152.72     
  1974.36        500.000        5153.69     
  1971.15        500.000        5154.65     
  1967.95        500.000        5155.61     
  1964.74        500.000        5156.57     
  1961.54        500.000        5157.52     
  1958.33        500.000        5158.48     
  1955.13        500.000        5159.44     
  1951.92        500.000        5160.39     
  1948.72        500.000        5161.35     
  1945.51        500.000        5162.30     
  1942.31        500.000        5163.26     
  1939.10        500.000        5164.21     
  1935.90        500.000        5165.17     
  1932.69        500.000        5166.12     
  1929.49        500.000        5167.07     
  1926.28        500.000        5168.02     
  1923.08        500.000        5168.97     
  1919.87        500.000        5169.92     
  1916.67        500.000        5170.87     
  1913.46        500.000        5171.82     
  1910.26        500.000        3886.32     
  1907.05        500.000        3478.65     
  1903.85        500.000        3359.44     
  1900.64        500.000        3302.73     
  1897.44        500.000        3269.70     
  1894.23        500.000        3250.39     
  1891.03        500.000        3236.71     
  1887.82        500.000        3227.08     
  1884.62        500.000        3218.58     
  1881.41        500.000        3185.68     
  1878.21        500.000        3184.70     
  1875.00        500.000        3184.21     
  1871.79        500.000        3183.84     
  1868.59        500.000        3183.99     
  1865.38        500.000        3184.18     
  1862.18        500.000        3185.24     
  1858.97        500.000        3186.95     
  1855.77        500.000        3188.85     
  1852.56        500.000        3190.62     
  1849.36        500.000        3192.29     
  1846.15        500.000        3193.87     
  1842.95        500.000        3195.90     
  1839.74        500.000        3197.82     
  1836.54        500.000        3199.64     
  1833.33        500.000        3201.38     
  1830.13        500.000        3203.04     
  1826.92        500.000        3204.62     
  1823.72        500.000        3206.14     
  1820.51        500.000        3207.60     
  1817.31        500.000        3209.48     
  1814.10        500.000        3211.29     
  1810.90        500.000        3213.03     
  1807.69        500.000        3214.71     
  1804.49        500.000        3216.33     
  1801.28        500.000        3217.90     
  1798.08        500.000        3219.42     
  1794.87        500.000        3220.89     
  1791.67        500.000        3222.63     
  1788.46        500.000        3224.31     
  1785.26        500.000        3225.94     
  1782.05        500.000        3227.53     
  1778.85        500.000        3229.08     
  1775.64        500.000        3230.59     
  1772.44        500.000        3232.06     
  1769.23        500.000        3233.49     
  1766.03        500.000        3235.11     
  1762.82        500.000        3236.69     
  1759.62        500.000        3238.24     
  1756.41        500.000        3239.75     
  1753.21        500.000        3241.23     
  1750.00        500.000        3242.68     
  1746.79        500.000        3244.10     
  1743.59        500.000        3245.49     
  1740.38        500.000        3246.94     
  1737.18        500.000        3248.37     
  1733.97        500.000        3249.77     
  1730.77        500.000        3251.14     
  1727.56        500.000        3252.49     
  1724.36        500.000        3253.82     
  1721.15        500.000        3255.13     
  1717.95        500.000        3256.42     
  1714.74        500.000        3257.70     
  1711.54        500.000        3258.97     
  1708.33        500.000        3260.22     
  1705.13        500.000        3261.45     
  1701.92        500.000        3262.66     
  1698.72        500.000        3263.86     
  1695.51        500.000        3265.04     
  1692.31        500.000        3266.20     
  1689.10        500.000        3267.35     
  1685.90        500.000        3268.48     
  1682.69        500.000        3269.60     
  1679.49        500.000        3270.70     
  1676.28        500.000        3271.80     
  1673.08        500.000        3272.88     
  1669.87        500.000        3273.95     
  1666.67        500.000        3275.01     
  1663.46        500.000        3276.01     
  1660.26        500.000        3277.00     
  1657.05        500.000        3277.99     
  1653.85        500.000        3278.96     
  1650.64        500.000        3279.93     
  1647.44        500.000        3280.89     
  1644.23        500.000        3281.84     
  1641.03        500.000        3282.78     
  1637.82        500.000        3283.66     
  1634.62        500.000        3284.54     
  1631.41        500.000        3285.41     
  1628.21        500.000        3286.27     
  1625.00        500.000        3287.13     
  1621.79        500.000        3287.98     
  1618.59        500.000        3288.83     
  1615.38        500.000        3289.67     
  1612.18        500.000        3290.47     
  1608.97        500.000        3291.27     
  1605.77        500.000        3292.06     
  1602.56        500.000        3292.84     
  1599.36        500.000        3293.61     
  1596.15        500.000        3294.37     
  1592.95        500.000        3295.11     
  1589.74        500.000        3294.48     
  1586.54        500.000        3293.90     
  1583.33        500.000        3293.34     
  1580.13        500.000        3292.81     
  1576.92        500.000        3292.31     
  1573.72        500.000        3291.84     
  1570.51        500.000        3291.38     
  1567.31        500.000        3290.95     
  1564.10        500.000        3290.55     
  1560.90        500.000        3290.37     
  1557.69        500.000        3290.21     
  1554.49        500.000        3290.06     
  1551.28        500.000        3289.92     
  1548.08        500.000        3289.80     
  1544.87        500.000        3289.68     
  1541.67        500.000        3289.57     
  1538.46        500.000        3289.47     
  1535.26        500.000        3289.50     
  1532.05        500.000        3289.53     
  1528.85        500.000        3289.57     
  1525.64        500.000        3289.62     
  1522.44        500.000        3289.67     
  1519.23        500.000        3289.72     
  1516.03        500.000        3289.79     
  1512.82        500.000        3289.85     
  1509.62        500.000        3289.99     
  1506.41        500.000        3290.12     
  1503.21        500.000        3290.26     
  1500.00        500.000        3290.41     
  1496.79        500.000        3290.56     
  1493.59        500.000        3290.71     
  1490.38        500.000        3290.86     
  1487.18        500.000        3291.02     
  1483.97        500.000        3291.21     
  1480.77        500.000        3291.41     
  1477.56        500.000        3291.61     
  1474.36        500.000        3291.81     
  1471.15        500.000        3292.01     
  1467.95        500.000        3292.22     
  1464.74        500.000        3292.43     
  1461.54        500.000        3292.64     
  1458.33        500.000        3292.87     
  1455.13        500.000        3293.10     
  1451.92        500.000        3293.34     
  1448.72        500.000        3293.59     
  1445.51        500.000        3293.90     
  1442.31        500.000        3294.22     
  1439.10        500.000        3294.53     
  1435.90        500.000        3294.85     
  1432.69        500.000        3295.21     
  1429.49        500.000        3295.56     
  1426.28        500.000        3295.92     
  1423.08        500.000        3296.28     
  1419.87        500.000        3296.66     
  1416.67        500.000        3297.04     
  1413.46        500.000        3297.41     
  1410.26        500.000        3297.78     
  1407.05        500.000        3297.32     
  1403.85        500.000        3296.28     
  1400.64        500.000        3296.71     
  1397.44        500.000        3294.49     
  1394.23        500.000        3294.93     
  1391.03        500.000        3295.36     
  1387.82        500.000        3295.80     
  1384.62        500.000        3291.86     
  1381.41        500.000        3292.29     
  1378.21        500.000        3292.72     
  1375.00        500.000        3293.15     
  1371.79        500.000        3293.58     
  1368.59        500.000        3294.01     
  1365.38        500.000        3294.44     
  1362.18        500.000        3294.87     
  1358.97        500.000        3288.79     
  1355.77        500.000        3289.21     
  1352.56        500.000        3289.64     
  1349.36        500.000        3290.07     
  1346.15        500.000        3290.49     
  1342.95        500.000        3290.92     
  1339.74        500.000        3291.34     
  1336.54        500.000        3291.77     
  1333.33        500.000        3287.30     
  1330.13        500.000        3287.72     
  1326.92        500.000        3288.15     
  1323.72        500.000        3288.57     
  1320.51        500.000        3288.99     
  1317.31        500.000        3289.41     
  1314.10        500.000        3289.83     
  1310.90        500.000        3290.25     
  1307.69        500.000        3286.71     
  1304.49        500.000        3286.68     
  1301.28        500.000        3261.43     
  1298.08        500.000        3238.15     
  1294.87        500.000        3238.51     
  1291.67        500.000        3238.92     
  1288.46        500.000        3239.32     
  1285.26        500.000        3239.73     
  1282.05        500.000        3239.95     
  1278.85        500.000        3240.36     
  1275.64        500.000        3240.76     
  1272.44        500.000        3241.16     
  1269.23        500.000        3241.57     
  1266.03        500.000        3241.97     
  1262.82        500.000        3242.37     
  1259.62        500.000        3242.77     
  1256.41        500.000        3242.84     
  1253.21        500.000        3243.24     
  1250.00        500.000        3243.64     
  1246.79        500.000        3244.04     
  1243.59        500.000        3244.44     
  1240.38        500.000        3244.84     
  1237.18        500.000        3245.24     
  1233.97        500.000        3245.64     
  1230.77        500.000        3245.73     
  1227.56        500.000        3246.13     
  1224.36        500.000        3246.52     
  1221.15        500.000        3246.92     
  1217.95        500.000        3247.32     
  1214.74        500.000        3247.72     
  1211.54        500.000        3248.12     
  1208.33        500.000        3248.52     
  1205.13        500.000        3248.63     
  1201.92        500.000        3249.02     
  1198.72        500.000        3249.42     
  1195.51        500.000        3249.82     
  1192.31        500.000        3250.22     
  1189.10        500.000        3250.61     
  1185.90        500.000        3251.01     
  1182.69        500.000        3251.40     
  1179.49        500.000        3251.54     
  1176.28        500.000        3251.93     
  1173.08        500.000        3252.33     
  1169.87        500.000        3252.72     
  1166.67        500.000        3253.12     
  1163.46        500.000        3253.51     
  1160.26        500.000        3253.91     
  1157.05        500.000        3254.30     
  1153.85        500.000        3254.46     
  1150.64        500.000        3254.85     
  1147.44        500.000        3255.24     
  1144.23        500.000        3255.64     
  1141.03        500.000        3256.03     
  1137.82        500.000        3256.42     
  1134.62        500.000        3256.81     
  1131.41        500.000        3257.21     
  1128.21        500.000        3257.39     
  1125.00        500.000        3257.78     
  1121.79        500.000        3258.17     
  1118.59        500.000        3258.56     
  1115.38        500.000        3258.95     
  1112.18        500.000        3259.34     
  1108.97        500.000        3259.73     
  1105.77        500.000        3260.12     
  1102.56        500.000        3260.33     
  1099.36        500.000        3260.72     
  1096.15        500.000        3261.11     
  1092.95        500.000        3261.50     
  1089.74        500.000        3261.89     
  1086.54        500.000        3262.28     
  1083.33        500.000        3262.66     
  1080.13        500.000        3263.05     
  1076.92        500.000        3263.29     
  1073.72        500.000        3263.68     
  1070.51        500.000        3264.07     
  1067.31        500.000        3264.45     
  1064.10        500.000        3264.84     
  1060.90        500.000        3265.22     
  1057.69        500.000        3265.61     
  1054.49        500.000        3266.00     
  1051.28        500.000        3266.26     
  1048.08        500.000        3266.63     
  1044.87        500.000        3267.01     
  1041.67        500.000        3267.40     
  1038.46        500.000        3267.77     
  1035.26        500.000        3268.15     
  1032.05        500.000        3268.53     
  1028.85        500.000        3268.92     
  1025.64        500.000        3269.28     
  1022.44        500.000        3269.67     
  1019.23        500.000        3270.05     
  1016.03        500.000        3270.44     
  1012.82        500.000        3270.83     
  1009.62        500.000        3271.22     
  1006.41        500.000        3271.61     
  1003.21        500.000        3271.99     
  1000.00        500.000        3272.28     
