|6.6.6
Archiving\03_Data\fracLP/QFM_m4.5/GRV/GRV_6.tab                           
           1
T(K)    
  0.000000000000000E+000
  0.000000000000000E+000
           0
           3
T(K)           P(bar)         rho,kg/m3     
  2000.00        500.000        3552.33     
  1997.49        500.000        3552.70     
  1994.99        500.000        3553.07     
  1992.48        500.000        3553.44     
  1989.97        500.000        3553.81     
  1987.47        500.000        3554.18     
  1984.96        500.000        3554.55     
  1982.46        500.000        3554.92     
  1979.95        500.000        3555.29     
  1977.44        500.000        3555.66     
  1974.94        500.000        3556.03     
  1972.43        500.000        3556.40     
  1969.92        500.000        3556.77     
  1967.42        500.000        3557.14     
  1964.91        500.000        3557.50     
  1962.41        500.000        3557.87     
  1959.90        500.000        3558.24     
  1957.39        500.000        3558.61     
  1954.89        500.000        3558.98     
  1952.38        500.000        3559.35     
  1949.87        500.000        3559.72     
  1947.37        500.000        3560.08     
  1944.86        500.000        3560.45     
  1942.36        500.000        3560.82     
  1939.85        500.000        3561.19     
  1937.34        500.000        3561.56     
  1934.84        500.000        3561.92     
  1932.33        500.000        3562.29     
  1929.82        500.000        3562.66     
  1927.32        500.000        3563.03     
  1924.81        500.000        3563.39     
  1922.31        500.000        3563.76     
  1919.80        500.000        3564.13     
  1917.29        500.000        3564.49     
  1914.79        500.000        3564.86     
  1912.28        500.000        3565.23     
  1909.77        500.000        3565.59     
  1907.27        500.000        3565.96     
  1904.76        500.000        3566.32     
  1902.26        500.000        3566.69     
  1899.75        500.000        3567.06     
  1897.24        500.000        3567.42     
  1894.74        500.000        3567.79     
  1892.23        500.000        3568.15     
  1889.72        500.000        3568.52     
  1887.22        500.000        3568.88     
  1884.71        500.000        3569.25     
  1882.21        500.000        3569.61     
  1879.70        500.000        3569.98     
  1877.19        500.000        3570.34     
  1874.69        500.000        3570.71     
  1872.18        500.000        3571.07     
  1869.67        500.000        3571.44     
  1867.17        500.000        3571.80     
  1864.66        500.000        3572.16     
  1862.16        500.000        3572.53     
  1859.65        500.000        3572.89     
  1857.14        500.000        3573.25     
  1854.64        500.000        3573.62     
  1852.13        500.000        3573.98     
  1849.62        500.000        3574.35     
  1847.12        500.000        3574.71     
  1844.61        500.000        3575.07     
  1842.11        500.000        3575.43     
  1839.60        500.000        3575.80     
  1837.09        500.000        3576.16     
  1834.59        500.000        3576.52     
  1832.08        500.000        3576.88     
  1829.57        500.000        3577.25     
  1827.07        500.000        3577.61     
  1824.56        500.000        3577.97     
  1822.06        500.000        3578.33     
  1819.55        500.000        3578.70     
  1817.04        500.000        3579.06     
  1814.54        500.000        3579.42     
  1812.03        500.000        3579.78     
  1809.52        500.000        3580.14     
  1807.02        500.000        3580.50     
  1804.51        500.000        3580.86     
  1802.01        500.000        3581.22     
  1799.50        500.000        3581.59     
  1796.99        500.000        3593.20     
  1794.49        500.000        3596.00     
  1791.98        500.000        3596.05     
  1789.47        500.000        3596.43     
  1786.97        500.000        3596.70     
  1784.46        500.000        3596.93     
  1781.95        500.000        3597.28     
  1779.45        500.000        3597.45     
  1776.94        500.000        3597.79     
  1774.44        500.000        3597.99     
  1771.93        500.000        3598.28     
  1769.42        500.000        3598.55     
  1766.92        500.000        3602.82     
  1764.41        500.000        3585.46     
  1761.90        500.000        3278.30     
  1759.40        500.000        3282.94     
  1756.89        500.000        3282.84     
  1754.39        500.000        3284.91     
  1751.88        500.000        3286.16     
  1749.37        500.000        3288.12     
  1746.87        500.000        3289.46     
  1744.36        500.000        3287.44     
  1741.85        500.000        3293.41     
  1739.35        500.000        3294.55     
  1736.84        500.000        3297.19     
  1734.34        500.000        3298.29     
  1731.83        500.000        3300.35     
  1729.32        500.000        3301.67     
  1726.82        500.000        3303.08     
  1724.31        500.000        3304.57     
  1721.80        500.000        3307.29     
  1719.30        500.000        3308.12     
  1716.79        500.000        3310.13     
  1714.29        500.000        3312.27     
  1711.78        500.000        3315.13     
  1709.27        500.000        3315.06     
  1706.77        500.000        3316.36     
  1704.26        500.000        3318.62     
  1701.75        500.000        3319.70     
  1699.25        500.000        3321.36     
  1696.74        500.000        3322.34     
  1694.24        500.000        3326.93     
  1691.73        500.000        3324.92     
  1689.22        500.000        3327.54     
  1686.72        500.000        3328.50     
  1684.21        500.000        3330.45     
  1681.70        500.000        3332.32     
  1679.20        500.000        3333.91     
  1676.69        500.000        3332.37     
  1674.19        500.000        3336.80     
  1671.68        500.000        3337.85     
  1669.17        500.000        3339.41     
  1666.67        500.000        3340.63     
  1664.16        500.000        3342.48     
  1661.65        500.000        3343.41     
  1659.15        500.000        3345.95     
  1656.64        500.000        3331.38     
  1654.14        500.000        3347.70     
  1651.63        500.000        3348.87     
  1649.12        500.000        3349.78     
  1646.62        500.000        3352.68     
  1644.11        500.000        3351.03     
  1641.60        500.000        3354.60     
  1639.10        500.000        3355.36     
  1636.59        500.000        3357.47     
  1634.09        500.000        3358.51     
  1631.58        500.000        3360.34     
  1629.07        500.000        3360.81     
  1626.57        500.000        3304.09     
  1624.06        500.000        3234.01     
  1621.55        500.000        3235.07     
  1619.05        500.000        3236.12     
  1616.54        500.000        3237.38     
  1614.04        500.000        3237.94     
  1611.53        500.000        3239.29     
  1609.02        500.000        3240.75     
  1606.52        500.000        3241.75     
  1604.01        500.000        3242.46     
  1601.50        500.000        3243.70     
  1599.00        500.000        3244.59     
  1596.49        500.000        3245.65     
  1593.98        500.000        3247.43     
  1591.48        500.000        3247.91     
  1588.97        500.000        3249.14     
  1586.47        500.000        3250.03     
  1583.96        500.000        3251.21     
  1581.45        500.000        3252.20     
  1578.95        500.000        3253.53     
  1576.44        500.000        3254.51     
  1573.93        500.000        3256.22     
  1571.43        500.000        3257.31     
  1568.92        500.000        3259.02     
  1566.42        500.000        3259.91     
  1563.91        500.000        3260.44     
  1561.40        500.000        3262.08     
  1558.90        500.000        3262.76     
  1556.39        500.000        3264.36     
  1553.88        500.000        3265.33     
  1551.38        500.000        3266.43     
  1548.87        500.000        3267.71     
  1546.37        500.000        3269.03     
  1543.86        500.000        3270.12     
  1541.35        500.000        3271.51     
  1538.85        500.000        3264.51     
  1536.34        500.000        3258.69     
  1533.83        500.000        3268.54     
  1531.33        500.000        3271.52     
  1528.82        500.000        3272.27     
  1526.32        500.000        3273.37     
  1523.81        500.000        3273.32     
  1521.30        500.000        3261.38     
  1518.80        500.000        3261.61     
  1516.29        500.000        3263.88     
  1513.78        500.000        3266.18     
  1511.28        500.000        3268.44     
  1508.77        500.000        3270.73     
  1506.27        500.000        3272.89     
  1503.76        500.000        3275.30     
  1501.25        500.000        3277.53     
  1498.75        500.000        3279.79     
  1496.24        500.000        3282.08     
  1493.73        500.000        3284.40     
  1491.23        500.000        3286.86     
  1488.72        500.000        3288.43     
  1486.22        500.000        3291.25     
  1483.71        500.000        3293.29     
  1481.20        500.000        3295.36     
  1478.70        500.000        3297.98     
  1476.19        500.000        3300.86     
  1473.68        500.000        3302.41     
  1471.18        500.000        3304.85     
  1468.67        500.000        3306.88     
  1466.17        500.000        3309.53     
  1463.66        500.000        3311.96     
  1461.15        500.000        3314.25     
  1458.65        500.000        3316.33     
  1456.14        500.000        3318.79     
  1453.63        500.000        3321.34     
  1451.13        500.000        3323.58     
  1448.62        500.000        3325.99     
  1446.12        500.000        3328.58     
  1443.61        500.000        3330.74     
  1441.10        500.000        3333.24     
  1438.60        500.000        3335.71     
  1436.09        500.000        3337.98     
  1433.58        500.000        3340.60     
  1431.08        500.000        3343.08     
  1428.57        500.000        3345.65     
  1426.07        500.000        3348.12     
  1423.56        500.000        3350.72     
  1421.05        500.000        3352.91     
  1418.55        500.000        3355.86     
  1416.04        500.000        3358.40     
  1413.53        500.000        3360.95     
  1411.03        500.000        3363.45     
  1408.52        500.000        3366.22     
  1406.02        500.000        3368.76     
  1403.51        500.000        3371.60     
  1401.00        500.000        3374.08     
  1398.50        500.000        3376.70     
  1395.99        500.000        3207.84     
  1393.48        500.000        3170.18     
  1390.98        500.000        3173.24     
  1388.47        500.000        3176.45     
  1385.96        500.000        3179.56     
  1383.46        500.000        3182.83     
  1380.95        500.000        3186.08     
  1378.45        500.000        3189.31     
  1375.94        500.000        3192.56     
  1373.43        500.000        3196.17     
  1370.93        500.000        3199.44     
  1368.42        500.000        3202.72     
  1365.91        500.000        3197.27     
  1363.41        500.000        3205.39     
  1360.90        500.000        3213.49     
  1358.40        500.000        3223.12     
  1355.89        500.000        3232.87     
  1353.38        500.000        3240.41     
  1350.88        500.000        3248.01     
  1348.37        500.000        3420.82     
  1345.86        500.000        3417.33     
  1343.36        500.000        3406.82     
  1340.85        500.000        3366.04     
  1338.35        500.000        3348.45     
  1335.84        500.000        3333.39     
  1333.33        500.000        3332.23     
  1330.83        500.000        3331.98     
  1328.32        500.000        3335.02     
  1325.81        500.000        3336.82     
  1323.31        500.000        3342.46     
  1320.80        500.000        3344.59     
  1318.30        500.000        3310.48     
  1315.79        500.000        3036.32     
  1313.28        500.000        3191.14     
  1310.78        500.000        3483.74     
  1308.27        500.000        4168.33     
  1305.76        500.000        3441.69     
  1303.26        500.000        3224.42     
  1300.75        500.000        3288.99     
  1298.25        500.000        3357.90     
  1295.74        500.000        3539.11     
  1293.23        500.000        3383.61     
  1290.73        500.000        3329.21     
  1288.22        500.000        3356.47     
  1285.71        500.000        3390.41     
  1283.21        500.000        3398.37     
  1280.70        500.000        3400.71     
  1278.20        500.000        3396.31     
  1275.69        500.000        3387.44     
  1273.18        500.000        3365.24     
  1270.68        500.000        3348.11     
  1268.17        500.000        3340.49     
  1265.66        500.000        3342.25     
  1263.16        500.000        3344.47     
  1260.65        500.000        3346.01     
  1258.15        500.000        3347.74     
  1255.64        500.000        3349.54     
  1253.13        500.000        3351.05     
  1250.63        500.000        3352.70     
  1248.12        500.000        3353.90     
  1245.61        500.000        3355.84     
  1243.11        500.000        3357.22     
  1240.60        500.000        2988.32     
  1238.10        500.000        2854.73     
  1235.59        500.000        2855.17     
  1233.08        500.000        2855.78     
  1230.58        500.000        2856.64     
  1228.07        500.000        2856.54     
  1225.56        500.000        2856.28     
  1223.06        500.000        2856.75     
  1220.55        500.000        2694.59     
  1218.05        500.000        2686.12     
  1215.54        500.000        2687.68     
  1213.03        500.000        2687.03     
  1210.53        500.000        2685.34     
  1208.02        500.000        2678.19     
  1205.51        500.000        2679.86     
  1203.01        500.000        2679.14     
  1200.50        500.000        2640.53     
  1197.99        500.000        2670.43     
  1195.49        500.000        2664.97     
  1192.98        500.000        2784.98     
  1190.48        500.000        2634.43     
  1187.97        500.000        2632.60     
  1185.46        500.000        2632.63     
  1182.96        500.000        2632.74     
  1180.45        500.000        2632.84     
  1177.94        500.000        2630.42     
  1175.44        500.000        2632.93     
  1172.93        500.000        2635.36     
  1170.43        500.000        2635.35     
  1167.92        500.000        2632.32     
  1165.41        500.000        2635.61     
  1162.91        500.000        2635.72     
  1160.40        500.000        2635.84     
  1157.89        500.000        2635.96     
  1155.39        500.000        2636.06     
  1152.88        500.000        2636.15     
  1150.38        500.000        2636.26     
  1147.87        500.000        2636.38     
  1145.36        500.000        2636.48     
  1142.86        500.000        2636.61     
  1140.35        500.000        2636.72     
  1137.84        500.000        2636.83     
  1135.34        500.000        2636.92     
  1132.83        500.000        2637.03     
  1130.33        500.000        2637.14     
  1127.82        500.000        2637.28     
  1125.31        500.000        2637.35     
  1122.81        500.000        2637.49     
  1120.30        500.000        2637.57     
  1117.79        500.000        2637.72     
  1115.29        500.000        2637.83     
  1112.78        500.000        2637.94     
  1110.28        500.000        2638.05     
  1107.77        500.000        2636.16     
  1105.26        500.000        2638.27     
  1102.76        500.000        2638.38     
  1100.25        500.000        2638.46     
  1097.74        500.000        2638.59     
  1095.24        500.000        2638.69     
  1092.73        500.000        2638.78     
  1090.23        500.000        2638.91     
  1087.72        500.000        2639.01     
  1085.21        500.000        2639.12     
  1082.71        500.000        2639.20     
  1080.20        500.000        2639.31     
  1077.69        500.000        2639.41     
  1075.19        500.000        2639.54     
  1072.68        500.000        2639.66     
  1070.18        500.000        2639.76     
  1067.67        500.000        2639.89     
  1065.16        500.000        2639.98     
  1062.66        500.000        2640.10     
  1060.15        500.000        2640.21     
  1057.64        500.000        2640.32     
  1055.14        500.000        2640.43     
  1052.63        500.000        2640.50     
  1050.13        500.000        2635.50     
  1047.62        500.000        2639.33     
  1045.11        500.000        2639.35     
  1042.61        500.000        2639.12     
  1040.10        500.000        2639.12     
  1037.59        500.000        2639.03     
  1035.09        500.000        2639.05     
  1032.58        500.000        2639.07     
  1030.08        500.000        2638.30     
  1027.57        500.000        2638.38     
  1025.06        500.000        2638.46     
  1022.56        500.000        2638.54     
  1020.05        500.000        2639.26     
  1017.54        500.000        2638.70     
  1015.04        500.000        2639.37     
  1012.53        500.000        2639.42     
  1010.03        500.000        2639.48     
  1007.52        500.000        2639.54     
  1005.01        500.000        2639.61     
  1002.51        500.000        2639.67     
  1000.00        500.000        2639.74     
