|6.6.6
Archiving\03_Data\frac/QFM_m4.75/TIS/TIS_6.tab                            
           1
T(K)    
  0.000000000000000E+000
  0.000000000000000E+000
           0
           3
T(K)           P(bar)         rho,kg/m3     
  2000.00        2500.00        5042.63     
  1997.49        2500.00        5061.61     
  1994.99        2500.00        5080.21     
  1992.48        2500.00        5098.50     
  1989.97        2500.00        5116.43     
  1987.47        2500.00        5134.02     
  1984.96        2500.00        5151.31     
  1982.46        2500.00        5168.28     
  1979.95        2500.00        5184.96     
  1977.44        2500.00        5201.40     
  1974.94        2500.00        5217.43     
  1972.43        2500.00        5233.25     
  1969.92        2500.00        5248.78     
  1967.42        2500.00        5264.05     
  1964.91        2500.00        5279.08     
  1962.41        2500.00        5293.85     
  1959.90        2500.00        5308.41     
  1957.39        2500.00        5322.76     
  1954.89        2500.00        5336.73     
  1952.38        2500.00        5350.56     
  1949.87        2500.00        5364.37     
  1947.37        2500.00        5377.56     
  1944.86        2500.00        5390.74     
  1942.36        2500.00        5403.72     
  1939.85        2500.00        5416.50     
  1937.34        2500.00        5429.08     
  1934.84        2500.00        5441.48     
  1932.33        2500.00        5453.68     
  1929.82        2500.00        5465.70     
  1927.32        2500.00        5477.56     
  1924.81        2500.00        5489.23     
  1922.31        2500.00        5533.73     
  1919.80        2500.00        5539.01     
  1917.29        2500.00        5523.22     
  1914.79        2500.00        5534.26     
  1912.28        2500.00        5545.09     
  1909.77        2500.00        5555.81     
  1907.27        2500.00        5566.34     
  1904.76        2500.00        5576.77     
  1902.26        2500.00        5587.03     
  1899.75        2500.00        5597.15     
  1897.24        2500.00        5607.13     
  1894.74        2500.00        5616.99     
  1892.23        2500.00        5626.71     
  1889.72        2500.00        5636.30     
  1887.22        2500.00        5645.76     
  1884.71        2500.00        5655.13     
  1882.21        2500.00        5664.33     
  1879.70        2500.00        5673.43     
  1877.19        2500.00        5682.43     
  1874.69        2500.00        5691.30     
  1872.18        2500.00        5700.05     
  1869.67        2500.00        5708.74     
  1867.17        2500.00        5717.24     
  1864.66        2500.00        5725.67     
  1862.16        2500.00        5734.01     
  1859.65        2500.00        5743.63     
  1857.14        2500.00        5750.37     
  1854.64        2500.00        5758.41     
  1852.13        2500.00        5766.34     
  1849.62        2500.00        5774.18     
  1847.12        2500.00        5781.93     
  1844.61        2500.00        5789.59     
  1842.11        2500.00        5797.15     
  1839.60        2500.00        5804.64     
  1837.09        2500.00        5812.03     
  1834.59        2500.00        5819.33     
  1832.08        2500.00        5826.54     
  1829.57        2500.00        5833.69     
  1827.07        2500.00        5842.28     
  1824.56        2500.00        5847.73     
  1822.06        2500.00        5854.63     
  1819.55        2500.00        5861.45     
  1817.04        2500.00        5868.21     
  1814.54        2500.00        5874.87     
  1812.03        2500.00        5881.48     
  1809.52        2500.00        5888.02     
  1807.02        2500.00        5894.47     
  1804.51        2500.00        5900.86     
  1802.01        2500.00        5907.26     
  1799.50        2500.00        5913.43     
  1796.99        2500.00        5919.62     
  1794.49        2500.00        5925.74     
  1791.98        2500.00        5931.80     
  1789.47        2500.00        5937.91     
  1786.97        2500.00        5943.74     
  1784.46        2500.00        5949.59     
  1781.95        2500.00        5955.44     
  1779.45        2500.00        5961.15     
  1776.94        2500.00        5966.85     
  1774.44        2500.00        5972.48     
  1771.93        2500.00        5978.06     
  1769.42        2500.00        5978.68     
  1766.92        2500.00        5989.04     
  1764.41        2500.00        5994.44     
  1761.90        2500.00        6000.11     
  1759.40        2500.00        6005.10     
  1756.89        2500.00        6010.35     
  1754.39        2500.00        6015.55     
  1751.88        2500.00        6020.71     
  1749.37        2500.00        6025.80     
  1746.87        2500.00        6030.86     
  1744.36        2500.00        6035.84     
  1741.85        2500.00        6042.68     
  1739.35        2500.00        6045.69     
  1736.84        2500.00        6050.55     
  1734.34        2500.00        6055.36     
  1731.83        2500.00        6060.12     
  1729.32        2500.00        6064.84     
  1726.82        2500.00        6069.52     
  1724.31        2500.00        6073.15     
  1721.80        2500.00        6078.73     
  1719.30        2500.00        6083.27     
  1716.79        2500.00        6087.78     
  1714.29        2500.00        6092.24     
  1711.78        2500.00        6096.65     
  1709.27        2500.00        6101.03     
  1706.77        2500.00        6105.37     
  1704.26        2500.00        6109.66     
  1701.75        2500.00        6113.93     
  1699.25        2500.00        6118.14     
  1696.74        2500.00        6122.33     
  1694.24        2500.00        6126.46     
  1691.73        2500.00        6130.58     
  1689.22        2500.00        6134.64     
  1686.72        2500.00        6138.68     
  1684.21        2500.00        6149.46     
  1681.70        2500.00        6146.62     
  1679.20        2500.00        6150.54     
  1676.69        2500.00        6154.43     
  1674.19        2500.00        6158.28     
  1671.68        2500.00        6162.10     
  1669.17        2500.00        6165.89     
  1666.67        2500.00        6168.48     
  1664.16        2500.00        6167.31     
  1661.65        2500.00        6170.44     
  1659.15        2500.00        6174.06     
  1656.64        2500.00        6177.13     
  1654.14        2500.00        6180.35     
  1651.63        2500.00        6183.54     
  1649.12        2500.00        6186.71     
  1646.62        2500.00        6189.85     
  1644.11        2500.00        6192.97     
  1641.60        2500.00        6153.73     
  1639.10        2500.00        3380.66     
  1636.59        2500.00        3368.65     
  1634.09        2500.00        3363.40     
  1631.58        2500.00        3376.62     
  1629.07        2500.00        3374.71     
  1626.57        2500.00        3375.39     
  1624.06        2500.00        3363.17     
  1621.55        2500.00        3379.81     
  1619.05        2500.00        3381.32     
  1616.54        2500.00        3383.42     
  1614.04        2500.00        3384.70     
  1611.53        2500.00        3386.04     
  1609.02        2500.00        3387.63     
  1606.52        2500.00        3389.76     
  1604.01        2500.00        3390.61     
  1601.50        2500.00        3393.40     
  1599.00        2500.00        3393.82     
  1596.49        2500.00        3396.34     
  1593.98        2500.00        3276.19     
  1591.48        2500.00        3271.07     
  1588.97        2500.00        3272.59     
  1586.47        2500.00        3273.68     
  1583.96        2500.00        3274.52     
  1581.45        2500.00        3275.60     
  1578.95        2500.00        3276.93     
  1576.44        2500.00        3277.44     
  1573.93        2500.00        3279.61     
  1571.43        2500.00        3279.34     
  1568.92        2500.00        3280.64     
  1566.42        2500.00        3286.96     
  1563.91        2500.00        3275.09     
  1561.40        2500.00        3280.87     
  1558.90        2500.00        3284.01     
  1556.39        2500.00        3286.18     
  1553.88        2500.00        3279.19     
  1551.38        2500.00        3288.07     
  1548.87        2500.00        3292.10     
  1546.37        2500.00        3285.74     
  1543.86        2500.00        3289.79     
  1541.35        2500.00        3291.15     
  1538.85        2500.00        3273.40     
  1536.34        2500.00        3267.98     
  1533.83        2500.00        3269.99     
  1531.33        2500.00        3269.80     
  1528.82        2500.00        3271.61     
  1526.32        2500.00        3273.40     
  1523.81        2500.00        3275.37     
  1521.30        2500.00        3276.51     
  1518.80        2500.00        3278.43     
  1516.29        2500.00        3279.51     
  1513.78        2500.00        3280.76     
  1511.28        2500.00        3273.63     
  1508.77        2500.00        3267.99     
  1506.27        2500.00        3270.25     
  1503.76        2500.00        3272.51     
  1501.25        2500.00        3274.70     
  1498.75        2500.00        3279.42     
  1496.24        2500.00        3281.56     
  1493.73        2500.00        3283.66     
  1491.23        2500.00        3320.61     
  1488.72        2500.00        3363.35     
  1486.22        2500.00        3363.96     
  1483.71        2500.00        3364.40     
  1481.20        2500.00        3365.23     
  1478.70        2500.00        3365.96     
  1476.19        2500.00        3366.63     
  1473.68        2500.00        3367.31     
  1471.18        2500.00        3367.96     
  1468.67        2500.00        3368.68     
  1466.17        2500.00        3369.37     
  1463.66        2500.00        3370.10     
  1461.15        2500.00        3370.75     
  1458.65        2500.00        3371.49     
  1456.14        2500.00        3372.12     
  1453.63        2500.00        3372.96     
  1451.13        2500.00        3373.65     
  1448.62        2500.00        3374.38     
  1446.12        2500.00        3375.21     
  1443.61        2500.00        3375.81     
  1441.10        2500.00        3377.29     
  1438.60        2500.00        3220.26     
  1436.09        2500.00        3218.44     
  1433.58        2500.00        3218.78     
  1431.08        2500.00        3219.05     
  1428.57        2500.00        3219.31     
  1426.07        2500.00        3219.63     
  1423.56        2500.00        3219.82     
  1421.05        2500.00        3220.20     
  1418.55        2500.00        3220.45     
  1416.04        2500.00        3220.69     
  1413.53        2500.00        3220.98     
  1411.03        2500.00        3221.23     
  1408.52        2500.00        3221.45     
  1406.02        2500.00        3221.69     
  1403.51        2500.00        3221.91     
  1401.00        2500.00        3222.06     
  1398.50        2500.00        3222.20     
  1395.99        2500.00        3222.47     
  1393.48        2500.00        3222.60     
  1390.98        2500.00        3222.68     
  1388.47        2500.00        3222.77     
  1385.96        2500.00        3222.85     
  1383.46        2500.00        3222.90     
  1380.95        2500.00        3222.92     
  1378.45        2500.00        3222.95     
  1375.94        2500.00        3222.93     
  1373.43        2500.00        3222.89     
  1370.93        2500.00        3222.82     
  1368.42        2500.00        3222.72     
  1365.91        2500.00        3222.67     
  1363.41        2500.00        3222.35     
  1360.90        2500.00        3222.19     
  1358.40        2500.00        3221.93     
  1355.89        2500.00        3221.66     
  1353.38        2500.00        3221.28     
  1350.88        2500.00        3220.92     
  1348.37        2500.00        3220.45     
  1345.86        2500.00        3220.03     
  1343.36        2500.00        3219.46     
  1340.85        2500.00        3218.88     
  1338.35        2500.00        3218.18     
  1335.84        2500.00        3217.49     
  1333.33        2500.00        3216.72     
  1330.83        2500.00        3215.80     
  1328.32        2500.00        3214.92     
  1325.81        2500.00        3213.91     
  1323.31        2500.00        3212.80     
  1320.80        2500.00        3216.88     
  1318.30        2500.00        3214.75     
  1315.79        2500.00        3216.16     
  1313.28        2500.00        3218.17     
  1310.78        2500.00        3219.81     
  1308.27        2500.00        2824.88     
  1305.76        2500.00        2825.73     
  1303.26        2500.00        2828.41     
  1300.75        2500.00        2830.88     
  1298.25        2500.00        2833.73     
  1295.74        2500.00        2837.59     
  1293.23        2500.00        2841.13     
  1290.73        2500.00        2844.24     
  1288.22        2500.00        2847.17     
  1285.71        2500.00        2849.56     
  1283.21        2500.00        2851.75     
  1280.70        2500.00        2851.50     
  1278.20        2500.00        2848.50     
  1275.69        2500.00        2774.86     
  1273.18        2500.00        2842.20     
  1270.68        2500.00        2949.63     
  1268.17        2500.00        2804.67     
  1265.66        2500.00        2874.66     
  1263.16        2500.00        2955.35     
  1260.65        2500.00        2841.60     
  1258.15        2500.00        2841.88     
  1255.64        2500.00        2926.49     
  1253.13        2500.00        2865.08     
  1250.63        2500.00        2802.02     
  1248.12        2500.00        2717.44     
  1245.61        2500.00        2722.83     
  1243.11        2500.00        2722.74     
  1240.60        2500.00        2716.90     
  1238.10        2500.00        2712.33     
  1235.59        2500.00        2696.50     
  1233.08        2500.00        2705.52     
  1230.58        2500.00        2673.92     
  1228.07        2500.00        2673.59     
  1225.56        2500.00        2673.71     
  1223.06        2500.00        2674.32     
  1220.55        2500.00        2674.45     
  1218.05        2500.00        2674.18     
  1215.54        2500.00        2674.31     
  1213.03        2500.00        2674.44     
  1210.53        2500.00        2674.57     
  1208.02        2500.00        2674.70     
  1205.51        2500.00        2674.83     
  1203.01        2500.00        2674.96     
  1200.50        2500.00        2675.49     
  1197.99        2500.00        2675.14     
  1195.49        2500.00        2675.74     
  1192.98        2500.00        2675.87     
  1190.48        2500.00        2676.00     
  1187.97        2500.00        2675.73     
  1185.46        2500.00        2675.79     
  1182.96        2500.00        2675.92     
  1180.45        2500.00        2676.12     
  1177.94        2500.00        2676.18     
  1175.44        2500.00        2676.37     
  1172.93        2500.00        2676.47     
  1170.43        2500.00        2676.59     
  1167.92        2500.00        2676.72     
  1165.41        2500.00        2676.85     
  1162.91        2500.00        2676.98     
  1160.40        2500.00        2677.10     
  1157.89        2500.00        2677.24     
  1155.39        2500.00        2677.34     
  1152.88        2500.00        2677.47     
  1150.38        2500.00        2677.58     
  1147.87        2500.00        2677.69     
  1145.36        2500.00        2677.85     
  1142.86        2500.00        2678.02     
  1140.35        2500.00        2678.09     
  1137.84        2500.00        2678.22     
  1135.34        2500.00        2678.37     
  1132.83        2500.00        2678.48     
  1130.33        2500.00        2678.56     
  1127.82        2500.00        2678.73     
  1125.31        2500.00        2678.91     
  1122.81        2500.00        2679.00     
  1120.30        2500.00        2679.14     
  1117.79        2500.00        2679.11     
  1115.29        2500.00        2679.41     
  1112.78        2500.00        2679.37     
  1110.28        2500.00        2679.66     
  1107.77        2500.00        2679.79     
  1105.26        2500.00        2679.89     
  1102.76        2500.00        2680.00     
  1100.25        2500.00        2680.14     
  1097.74        2500.00        2680.27     
  1095.24        2500.00        2680.39     
  1092.73        2500.00        2680.52     
  1090.23        2500.00        2680.63     
  1087.72        2500.00        2680.77     
  1085.21        2500.00        2680.96     
  1082.71        2500.00        2681.01     
  1080.20        2500.00        2681.13     
  1077.69        2500.00        2681.10     
  1075.19        2500.00        2681.39     
  1072.68        2500.00        2681.61     
  1070.18        2500.00        2681.74     
  1067.67        2500.00        2681.78     
  1065.16        2500.00        2681.91     
  1062.66        2500.00        2682.04     
  1060.15        2500.00        2682.17     
  1057.64        2500.00        2682.30     
  1055.14        2500.00        2682.43     
  1052.63        2500.00        2682.55     
  1050.13        2500.00        2682.68     
  1047.62        2500.00        2682.92     
  1045.11        2500.00        2683.04     
  1042.61        2500.00        2683.14     
  1040.10        2500.00        2683.06     
  1037.59        2500.00        2683.18     
  1035.09        2500.00        2683.27     
  1032.58        2500.00        2683.58     
  1030.08        2500.00        2683.53     
  1027.57        2500.00        2683.83     
  1025.06        2500.00        2683.95     
  1022.56        2500.00        2684.07     
  1020.05        2500.00        2684.19     
  1017.54        2500.00        2684.32     
  1015.04        2500.00        2684.44     
  1012.53        2500.00        2684.56     
  1010.03        2500.00        2684.69     
  1007.52        2500.00        2684.81     
  1005.01        2500.00        2684.93     
  1002.51        2500.00        2685.06     
  1000.00        2500.00        2685.18     
