|6.6.6
Archiving\03_Data\fracLP/QFM/TIS/TIS_6.tab                                
           1
T(K)    
  0.000000000000000E+000
  0.000000000000000E+000
           0
           3
T(K)           P(bar)         rho,kg/m3     
  2000.00        500.000        3584.12     
  1997.49        500.000        3584.50     
  1994.99        500.000        3584.87     
  1992.48        500.000        3585.25     
  1989.97        500.000        3585.62     
  1987.47        500.000        3586.00     
  1984.96        500.000        3586.37     
  1982.46        500.000        3586.75     
  1979.95        500.000        3587.12     
  1977.44        500.000        3587.50     
  1974.94        500.000        3587.87     
  1972.43        500.000        3588.25     
  1969.92        500.000        3588.62     
  1967.42        500.000        3589.00     
  1964.91        500.000        3589.37     
  1962.41        500.000        3589.75     
  1959.90        500.000        3590.12     
  1957.39        500.000        3590.49     
  1954.89        500.000        3590.87     
  1952.38        500.000        3591.24     
  1949.87        500.000        3591.61     
  1947.37        500.000        3591.99     
  1944.86        500.000        3592.36     
  1942.36        500.000        3592.73     
  1939.85        500.000        3593.11     
  1937.34        500.000        3593.48     
  1934.84        500.000        3593.85     
  1932.33        500.000        3594.22     
  1929.82        500.000        3594.60     
  1927.32        500.000        3594.97     
  1924.81        500.000        3572.38     
  1922.31        500.000        2891.51     
  1919.80        500.000        2892.05     
  1917.29        500.000        2892.59     
  1914.79        500.000        2893.13     
  1912.28        500.000        2893.67     
  1909.77        500.000        2894.21     
  1907.27        500.000        2894.75     
  1904.76        500.000        2895.29     
  1902.26        500.000        2895.83     
  1899.75        500.000        2896.37     
  1897.24        500.000        2896.91     
  1894.74        500.000        2897.45     
  1892.23        500.000        2897.99     
  1889.72        500.000        2898.53     
  1887.22        500.000        2899.08     
  1884.71        500.000        2899.61     
  1882.21        500.000        2900.15     
  1879.70        500.000        2900.69     
  1877.19        500.000        2901.24     
  1874.69        500.000        2901.78     
  1872.18        500.000        2902.32     
  1869.67        500.000        2902.86     
  1867.17        500.000        2903.40     
  1864.66        500.000        2903.94     
  1862.16        500.000        2904.48     
  1859.65        500.000        2905.02     
  1857.14        500.000        2905.56     
  1854.64        500.000        2906.09     
  1852.13        500.000        2906.63     
  1849.62        500.000        2907.17     
  1847.12        500.000        2907.71     
  1844.61        500.000        2908.25     
  1842.11        500.000        2908.79     
  1839.60        500.000        2909.33     
  1837.09        500.000        2909.87     
  1834.59        500.000        2910.41     
  1832.08        500.000        2910.95     
  1829.57        500.000        2911.49     
  1827.07        500.000        2912.03     
  1824.56        500.000        2912.57     
  1822.06        500.000        2913.11     
  1819.55        500.000        2913.65     
  1817.04        500.000        2914.19     
  1814.54        500.000        2914.73     
  1812.03        500.000        2915.27     
  1809.52        500.000        2915.81     
  1807.02        500.000        2916.35     
  1804.51        500.000        2916.89     
  1802.01        500.000        2917.43     
  1799.50        500.000        2917.97     
  1796.99        500.000        2918.51     
  1794.49        500.000        2919.05     
  1791.98        500.000        2919.59     
  1789.47        500.000        2920.13     
  1786.97        500.000        2920.67     
  1784.46        500.000        2921.20     
  1781.95        500.000        2921.74     
  1779.45        500.000        2922.28     
  1776.94        500.000        2922.82     
  1774.44        500.000        2923.37     
  1771.93        500.000        2923.90     
  1769.42        500.000        2924.44     
  1766.92        500.000        2924.98     
  1764.41        500.000        2925.52     
  1761.90        500.000        2926.06     
  1759.40        500.000        2926.60     
  1756.89        500.000        2927.13     
  1754.39        500.000        2927.67     
  1751.88        500.000        2928.21     
  1749.37        500.000        2928.75     
  1746.87        500.000        2929.29     
  1744.36        500.000        2929.83     
  1741.85        500.000        2930.37     
  1739.35        500.000        2930.91     
  1736.84        500.000        2931.44     
  1734.34        500.000        2931.98     
  1731.83        500.000        2932.52     
  1729.32        500.000        2933.06     
  1726.82        500.000        2933.60     
  1724.31        500.000        2934.14     
  1721.80        500.000        2934.67     
  1719.30        500.000        2935.21     
  1716.79        500.000        2935.75     
  1714.29        500.000        2936.29     
  1711.78        500.000        2936.83     
  1709.27        500.000        2937.36     
  1706.77        500.000        2937.90     
  1704.26        500.000        2938.44     
  1701.75        500.000        2938.98     
  1699.25        500.000        2939.49     
  1696.74        500.000        2940.05     
  1694.24        500.000        2940.59     
  1691.73        500.000        2941.13     
  1689.22        500.000        2941.66     
  1686.72        500.000        4512.98     
  1684.21        500.000        4513.58     
  1681.70        500.000        4514.01     
  1679.20        500.000        4515.69     
  1676.69        500.000        4515.30     
  1674.19        500.000        4515.91     
  1671.68        500.000        4516.44     
  1669.17        500.000        4517.24     
  1666.67        500.000        4517.33     
  1664.16        500.000        4518.47     
  1661.65        500.000        4518.73     
  1659.15        500.000        4519.40     
  1656.64        500.000        4519.83     
  1654.14        500.000        4520.39     
  1651.63        500.000        4520.78     
  1649.12        500.000        4521.47     
  1646.62        500.000        4522.12     
  1644.11        500.000        4527.37     
  1641.60        500.000        4524.37     
  1639.10        500.000        4523.58     
  1636.59        500.000        4524.89     
  1634.09        500.000        4525.23     
  1631.58        500.000        4525.49     
  1629.07        500.000        4527.12     
  1626.57        500.000        4526.89     
  1624.06        500.000        4528.10     
  1621.55        500.000        4528.83     
  1619.05        500.000        3449.58     
  1616.54        500.000        3377.96     
  1614.04        500.000        3380.04     
  1611.53        500.000        3382.33     
  1609.02        500.000        3384.57     
  1606.52        500.000        3383.75     
  1604.01        500.000        3389.58     
  1601.50        500.000        3392.90     
  1599.00        500.000        3389.78     
  1596.49        500.000        3396.02     
  1593.98        500.000        3397.64     
  1591.48        500.000        3399.14     
  1588.97        500.000        3402.25     
  1586.47        500.000        3403.55     
  1583.96        500.000        3405.75     
  1581.45        500.000        3408.65     
  1578.95        500.000        3410.56     
  1576.44        500.000        3412.73     
  1573.93        500.000        3415.16     
  1571.43        500.000        3416.70     
  1568.92        500.000        3419.17     
  1566.42        500.000        3421.57     
  1563.91        500.000        3423.32     
  1561.40        500.000        3426.34     
  1558.90        500.000        3428.12     
  1556.39        500.000        3430.22     
  1553.88        500.000        3432.33     
  1551.38        500.000        3421.68     
  1548.87        500.000        3437.16     
  1546.37        500.000        3439.00     
  1543.86        500.000        3441.09     
  1541.35        500.000        3443.69     
  1538.85        500.000        3444.96     
  1536.34        500.000        3447.51     
  1533.83        500.000        3449.81     
  1531.33        500.000        3451.86     
  1528.82        500.000        3455.06     
  1526.32        500.000        3457.12     
  1523.81        500.000        3459.10     
  1521.30        500.000        3461.46     
  1518.80        500.000        3464.54     
  1516.29        500.000        3465.58     
  1513.78        500.000        3467.19     
  1511.28        500.000        3429.39     
  1508.77        500.000        3311.24     
  1506.27        500.000        3306.45     
  1503.76        500.000        3306.87     
  1501.25        500.000        3307.71     
  1498.75        500.000        3309.05     
  1496.24        500.000        3309.89     
  1493.73        500.000        3310.56     
  1491.23        500.000        3314.41     
  1488.72        500.000        3318.78     
  1486.22        500.000        3315.02     
  1483.71        500.000        3321.35     
  1481.20        500.000        3325.00     
  1478.70        500.000        3318.07     
  1476.19        500.000        3319.29     
  1473.68        500.000        3320.62     
  1471.18        500.000        3322.14     
  1468.67        500.000        3323.26     
  1466.17        500.000        3325.21     
  1463.66        500.000        3325.77     
  1461.15        500.000        3297.86     
  1458.65        500.000        3292.85     
  1456.14        500.000        3295.07     
  1453.63        500.000        3297.72     
  1451.13        500.000        3306.54     
  1448.62        500.000        3311.26     
  1446.12        500.000        3314.74     
  1443.61        500.000        3307.51     
  1441.10        500.000        3310.74     
  1438.60        500.000        3312.03     
  1436.09        500.000        3314.89     
  1433.58        500.000        3318.03     
  1431.08        500.000        3336.22     
  1428.57        500.000        3337.33     
  1426.07        500.000        3331.16     
  1423.56        500.000        3328.52     
  1421.05        500.000        3331.46     
  1418.55        500.000        3334.00     
  1416.04        500.000        3337.19     
  1413.53        500.000        3340.07     
  1411.03        500.000        3343.17     
  1408.52        500.000        3346.02     
  1406.02        500.000        3348.67     
  1403.51        500.000        3378.18     
  1401.00        500.000        3354.89     
  1398.50        500.000        3357.53     
  1395.99        500.000        3360.77     
  1393.48        500.000        3363.94     
  1390.98        500.000        3366.69     
  1388.47        500.000        3370.16     
  1385.96        500.000        3249.34     
  1383.46        500.000        3188.93     
  1380.95        500.000        3208.31     
  1378.45        500.000        3220.62     
  1375.94        500.000        3225.94     
  1373.43        500.000        3231.29     
  1370.93        500.000        3236.82     
  1368.42        500.000        3242.16     
  1365.91        500.000        3247.82     
  1363.41        500.000        3253.37     
  1360.90        500.000        3263.42     
  1358.40        500.000        3309.44     
  1355.89        500.000        3341.67     
  1353.38        500.000        3369.48     
  1350.88        500.000        3384.24     
  1348.37        500.000        3392.62     
  1345.86        500.000        3397.54     
  1343.36        500.000        3400.97     
  1340.85        500.000        3403.88     
  1338.35        500.000        3405.94     
  1335.84        500.000        3408.41     
  1333.33        500.000        3410.21     
  1330.83        500.000        3412.13     
  1328.32        500.000        3413.95     
  1325.81        500.000        3415.56     
  1323.31        500.000        3417.14     
  1320.80        500.000        3418.66     
  1318.30        500.000        3420.01     
  1315.79        500.000        3421.25     
  1313.28        500.000        3422.54     
  1310.78        500.000        3423.63     
  1308.27        500.000        3424.75     
  1305.76        500.000        3425.65     
  1303.26        500.000        3426.64     
  1300.75        500.000        3427.53     
  1298.25        500.000        3428.39     
  1295.74        500.000        3429.10     
  1293.23        500.000        3429.84     
  1290.73        500.000        3430.42     
  1288.22        500.000        3430.86     
  1285.71        500.000        3431.33     
  1283.21        500.000        3431.62     
  1280.70        500.000        3431.95     
  1278.20        500.000        3432.23     
  1275.69        500.000        3432.43     
  1273.18        500.000        3432.36     
  1270.68        500.000        3432.43     
  1268.17        500.000        3432.29     
  1265.66        500.000        3432.21     
  1263.16        500.000        3431.87     
  1260.65        500.000        3431.56     
  1258.15        500.000        3431.07     
  1255.64        500.000        2889.71     
  1253.13        500.000        2875.41     
  1250.63        500.000        2876.62     
  1248.12        500.000        2877.41     
  1245.61        500.000        2877.76     
  1243.11        500.000        2877.83     
  1240.60        500.000        2877.43     
  1238.10        500.000        2876.79     
  1235.59        500.000        2875.62     
  1233.08        500.000        2874.27     
  1230.58        500.000        2872.74     
  1228.07        500.000        2870.79     
  1225.56        500.000        2868.68     
  1223.06        500.000        2866.09     
  1220.55        500.000        2862.77     
  1218.05        500.000        2844.23     
  1215.54        500.000        2679.34     
  1213.03        500.000        2679.06     
  1210.53        500.000        2676.43     
  1208.02        500.000        2672.50     
  1205.51        500.000        2671.33     
  1203.01        500.000        2684.82     
  1200.50        500.000        2665.28     
  1197.99        500.000        2668.03     
  1195.49        500.000        2656.59     
  1192.98        500.000        2666.46     
  1190.48        500.000        2652.69     
  1187.97        500.000        2640.62     
  1185.46        500.000        2624.85     
  1182.96        500.000        2624.97     
  1180.45        500.000        2625.09     
  1177.94        500.000        2625.22     
  1175.44        500.000        2625.35     
  1172.93        500.000        2625.47     
  1170.43        500.000        2625.59     
  1167.92        500.000        2625.71     
  1165.41        500.000        2625.83     
  1162.91        500.000        2625.95     
  1160.40        500.000        2626.07     
  1157.89        500.000        2626.19     
  1155.39        500.000        2626.31     
  1152.88        500.000        2626.43     
  1150.38        500.000        2626.55     
  1147.87        500.000        2626.67     
  1145.36        500.000        2626.78     
  1142.86        500.000        2626.90     
  1140.35        500.000        2627.02     
  1137.84        500.000        2627.14     
  1135.34        500.000        2627.25     
  1132.83        500.000        2627.37     
  1130.33        500.000        2627.48     
  1127.82        500.000        2627.61     
  1125.31        500.000        2627.72     
  1122.81        500.000        2627.83     
  1120.30        500.000        2627.95     
  1117.79        500.000        2628.06     
  1115.29        500.000        2628.17     
  1112.78        500.000        2628.29     
  1110.28        500.000        2628.40     
  1107.77        500.000        2628.51     
  1105.26        500.000        2628.62     
  1102.76        500.000        2628.73     
  1100.25        500.000        2628.84     
  1097.74        500.000        2628.95     
  1095.24        500.000        2629.05     
  1092.73        500.000        2629.16     
  1090.23        500.000        2629.27     
  1087.72        500.000        2629.38     
  1085.21        500.000        2629.49     
  1082.71        500.000        2629.60     
  1080.20        500.000        2629.70     
  1077.69        500.000        2629.81     
  1075.19        500.000        2629.92     
  1072.68        500.000        2630.02     
  1070.18        500.000        2630.13     
  1067.67        500.000        2630.23     
  1065.16        500.000        2630.34     
  1062.66        500.000        2630.44     
  1060.15        500.000        2630.55     
  1057.64        500.000        2630.65     
  1055.14        500.000        2630.75     
  1052.63        500.000        2630.86     
  1050.13        500.000        2630.96     
  1047.62        500.000        2631.07     
  1045.11        500.000        2631.17     
  1042.61        500.000        2631.27     
  1040.10        500.000        2631.37     
  1037.59        500.000        2631.47     
  1035.09        500.000        2631.58     
  1032.58        500.000        2631.68     
  1030.08        500.000        2631.78     
  1027.57        500.000        2631.88     
  1025.06        500.000        2631.98     
  1022.56        500.000        2632.08     
  1020.05        500.000        2632.18     
  1017.54        500.000        2632.28     
  1015.04        500.000        2632.38     
  1012.53        500.000        2632.48     
  1010.03        500.000        2632.58     
  1007.52        500.000        2632.68     
  1005.01        500.000        2632.82     
  1002.51        500.000        2632.88     
  1000.00        500.000        2632.97     
