|6.6.6
Archiving\03_Data\Deqfrac/QFM_m0.25/WD94/WD94_6.tab                       
           1
T(K)    
  0.000000000000000E+000
  0.000000000000000E+000
           0
           3
T(K)           P(bar)         rho,kg/m3     
  1625.00        2500.00        3249.01     
  1623.43        2500.00        3253.28     
  1621.87        2500.00        3253.31     
  1620.30        2500.00        3253.69     
  1618.73        2500.00        3254.80     
  1617.17        2500.00        3255.28     
  1615.60        2500.00        3256.92     
  1614.04        2500.00        3257.43     
  1612.47        2500.00        3258.29     
  1610.90        2500.00        3258.63     
  1609.34        2500.00        3259.54     
  1607.77        2500.00        3260.38     
  1606.20        2500.00        3261.97     
  1604.64        2500.00        3262.08     
  1603.07        2500.00        3262.90     
  1601.50        2500.00        3263.12     
  1599.94        2500.00        3263.75     
  1598.37        2500.00        3264.90     
  1596.80        2500.00        3264.65     
  1595.24        2500.00        3266.42     
  1593.67        2500.00        3266.74     
  1592.11        2500.00        3268.25     
  1590.54        2500.00        3269.07     
  1588.97        2500.00        3268.37     
  1587.41        2500.00        3270.06     
  1585.84        2500.00        3270.49     
  1584.27        2500.00        3271.16     
  1582.71        2500.00        3272.14     
  1581.14        2500.00        3272.83     
  1579.57        2500.00        3273.67     
  1578.01        2500.00        3274.07     
  1576.44        2500.00        3274.95     
  1574.87        2500.00        3275.54     
  1573.31        2500.00        3276.24     
  1571.74        2500.00        3277.00     
  1570.18        2500.00        3278.08     
  1568.61        2500.00        3278.87     
  1567.04        2500.00        3276.35     
  1565.48        2500.00        3283.47     
  1563.91        2500.00        3280.83     
  1562.34        2500.00        3281.54     
  1560.78        2500.00        3282.17     
  1559.21        2500.00        3282.70     
  1557.64        2500.00        3283.72     
  1556.08        2500.00        3283.03     
  1554.51        2500.00        3285.66     
  1552.94        2500.00        3285.77     
  1551.38        2500.00        3286.28     
  1549.81        2500.00        3286.95     
  1548.25        2500.00        3286.23     
  1546.68        2500.00        3290.39     
  1545.11        2500.00        3288.89     
  1543.55        2500.00        3289.84     
  1541.98        2500.00        3290.64     
  1540.41        2500.00        3291.08     
  1538.85        2500.00        3291.70     
  1537.28        2500.00        3292.65     
  1535.71        2500.00        3293.10     
  1534.15        2500.00        3293.96     
  1532.58        2500.00        3294.60     
  1531.02        2500.00        3295.07     
  1529.45        2500.00        3295.86     
  1527.88        2500.00        3296.56     
  1526.32        2500.00        3297.62     
  1524.75        2500.00        3297.63     
  1523.18        2500.00        3298.22     
  1521.62        2500.00        3298.22     
  1520.05        2500.00        3299.71     
  1518.48        2500.00        3299.77     
  1516.92        2500.00        3300.31     
  1515.35        2500.00        3300.56     
  1513.78        2500.00        3302.32     
  1512.22        2500.00        3302.17     
  1510.65        2500.00        3302.76     
  1509.09        2500.00        3303.32     
  1507.52        2500.00        3304.53     
  1505.95        2500.00        3304.77     
  1504.39        2500.00        3305.09     
  1502.82        2500.00        3305.93     
  1501.25        2500.00        3306.36     
  1499.69        2500.00        3306.71     
  1498.12        2500.00        3308.54     
  1496.55        2500.00        3308.09     
  1494.99        2500.00        3307.89     
  1493.42        2500.00        3309.00     
  1491.85        2500.00        3308.95     
  1490.29        2500.00        3309.52     
  1488.72        2500.00        3302.38     
  1487.16        2500.00        3284.58     
  1485.59        2500.00        3286.06     
  1484.02        2500.00        3287.44     
  1482.46        2500.00        3289.02     
  1480.89        2500.00        3290.27     
  1479.32        2500.00        3291.66     
  1477.76        2500.00        3292.95     
  1476.19        2500.00        3294.28     
  1474.62        2500.00        3296.42     
  1473.06        2500.00        3297.49     
  1471.49        2500.00        3299.07     
  1469.92        2500.00        3301.33     
  1468.36        2500.00        3301.76     
  1466.79        2500.00        3303.25     
  1465.23        2500.00        3304.59     
  1463.66        2500.00        3306.21     
  1462.09        2500.00        3307.61     
  1460.53        2500.00        3308.83     
  1458.96        2500.00        3310.38     
  1457.39        2500.00        3312.07     
  1455.83        2500.00        3312.96     
  1454.26        2500.00        3314.93     
  1452.69        2500.00        3316.80     
  1451.13        2500.00        3317.63     
  1449.56        2500.00        3319.28     
  1447.99        2500.00        3320.32     
  1446.43        2500.00        3315.72     
  1444.86        2500.00        3319.00     
  1443.30        2500.00        3320.33     
  1441.73        2500.00        3321.99     
  1440.16        2500.00        3323.50     
  1438.60        2500.00        3325.09     
  1437.03        2500.00        3326.64     
  1435.46        2500.00        3327.87     
  1433.90        2500.00        3329.29     
  1432.33        2500.00        3174.07     
  1430.76        2500.00        3153.32     
  1429.20        2500.00        3155.98     
  1427.63        2500.00        3158.71     
  1426.07        2500.00        3161.57     
  1424.50        2500.00        3164.21     
  1422.93        2500.00        3166.88     
  1421.37        2500.00        3170.19     
  1419.80        2500.00        3172.76     
  1418.23        2500.00        3175.32     
  1416.67        2500.00        3177.87     
  1415.10        2500.00        3180.88     
  1413.53        2500.00        3183.91     
  1411.97        2500.00        3185.69     
  1410.40        2500.00        3189.78     
  1408.83        2500.00        3192.17     
  1407.27        2500.00        3195.49     
  1405.70        2500.00        3198.13     
  1404.14        2500.00        3201.18     
  1402.57        2500.00        3203.98     
  1401.00        2500.00        3206.77     
  1399.44        2500.00        3210.08     
  1397.87        2500.00        3212.98     
  1396.30        2500.00        3215.88     
  1394.74        2500.00        3218.95     
  1393.17        2500.00        3221.85     
  1391.60        2500.00        3224.87     
  1390.04        2500.00        3227.90     
  1388.47        2500.00        3231.06     
  1386.90        2500.00        3234.09     
  1385.34        2500.00        3237.21     
  1383.77        2500.00        3240.33     
  1382.21        2500.00        3243.24     
  1380.64        2500.00        3246.48     
  1379.07        2500.00        3249.59     
  1377.51        2500.00        3252.45     
  1375.94        2500.00        3255.58     
  1374.37        2500.00        3258.64     
  1372.81        2500.00        3261.61     
  1371.24        2500.00        3264.68     
  1369.67        2500.00        3267.89     
  1368.11        2500.00        3271.08     
  1366.54        2500.00        3270.62     
  1364.97        2500.00        3272.58     
  1363.41        2500.00        3281.27     
  1361.84        2500.00        3271.29     
  1360.28        2500.00        3287.10     
  1358.71        2500.00        3289.84     
  1357.14        2500.00        3293.53     
  1355.58        2500.00        3295.23     
  1354.01        2500.00        3297.65     
  1352.44        2500.00        3396.48     
  1350.88        2500.00        3408.02     
  1349.31        2500.00        3408.93     
  1347.74        2500.00        3409.87     
  1346.18        2500.00        3410.69     
  1344.61        2500.00        3411.38     
  1343.05        2500.00        3412.02     
  1341.48        2500.00        3412.70     
  1339.91        2500.00        3413.22     
  1338.35        2500.00        3413.67     
  1336.78        2500.00        3414.09     
  1335.21        2500.00        3414.14     
  1333.65        2500.00        3414.83     
  1332.08        2500.00        3415.10     
  1330.51        2500.00        3415.15     
  1328.95        2500.00        3415.77     
  1327.38        2500.00        3415.71     
  1325.81        2500.00        3415.94     
  1324.25        2500.00        3416.13     
  1322.68        2500.00        3416.17     
  1321.12        2500.00        3416.18     
  1319.55        2500.00        3416.15     
  1317.98        2500.00        3416.11     
  1316.42        2500.00        3416.09     
  1314.85        2500.00        3415.97     
  1313.28        2500.00        3415.82     
  1311.72        2500.00        3415.58     
  1310.15        2500.00        3415.44     
  1308.58        2500.00        3415.14     
  1307.02        2500.00        3414.93     
  1305.45        2500.00        3414.64     
  1303.88        2500.00        3414.22     
  1302.32        2500.00        3413.91     
  1300.75        2500.00        3413.35     
  1299.19        2500.00        3413.06     
  1297.62        2500.00        3412.57     
  1296.05        2500.00        3412.03     
  1294.49        2500.00        3411.44     
  1292.92        2500.00        3410.96     
  1291.35        2500.00        2906.85     
  1289.79        2500.00        2887.23     
  1288.22        2500.00        2888.67     
  1286.65        2500.00        2882.66     
  1285.09        2500.00        2897.22     
  1283.52        2500.00        2892.47     
  1281.95        2500.00        2888.50     
  1280.39        2500.00        2903.58     
  1278.82        2500.00        2899.71     
  1277.26        2500.00        2896.94     
  1275.69        2500.00        2822.05     
  1274.12        2500.00        2902.43     
  1272.56        2500.00        3012.05     
  1270.99        2500.00        2893.98     
  1269.42        2500.00        2962.31     
  1267.86        2500.00        2903.85     
  1266.29        2500.00        2900.76     
  1264.72        2500.00        2901.56     
  1263.16        2500.00        2901.24     
  1261.59        2500.00        2902.23     
  1260.03        2500.00        2878.53     
  1258.46        2500.00        3000.25     
  1256.89        2500.00        2921.94     
  1255.33        2500.00        2902.16     
  1253.76        2500.00        2916.59     
  1252.19        2500.00        2901.39     
  1250.63        2500.00        2903.32     
  1249.06        2500.00        2894.95     
  1247.49        2500.00        2901.91     
  1245.93        2500.00        2912.38     
  1244.36        2500.00        2901.08     
  1242.79        2500.00        2919.13     
  1241.23        2500.00        2885.89     
  1239.66        2500.00        2836.92     
  1238.10        2500.00        2716.04     
  1236.53        2500.00        2757.92     
  1234.96        2500.00        2795.17     
  1233.40        2500.00        2503.19     
  1231.83        2500.00        2503.32     
  1230.26        2500.00        2719.70     
  1228.70        2500.00        2721.89     
  1227.13        2500.00        2710.75     
  1225.56        2500.00        2694.90     
  1224.00        2500.00        2679.47     
  1222.43        2500.00        2679.62     
  1220.86        2500.00        2679.69     
  1219.30        2500.00        2679.73     
  1217.73        2500.00        2679.69     
  1216.17        2500.00        2679.83     
  1214.60        2500.00        2679.90     
  1213.03        2500.00        2679.97     
  1211.47        2500.00        2680.12     
  1209.90        2500.00        2680.15     
  1208.33        2500.00        2679.75     
  1206.77        2500.00        2680.34     
  1205.20        2500.00        2680.32     
  1203.63        2500.00        2680.49     
  1202.07        2500.00        2680.53     
  1200.50        2500.00        2680.61     
  1198.93        2500.00        2680.69     
  1197.37        2500.00        2680.79     
  1195.80        2500.00        2680.88     
  1194.24        2500.00        2680.95     
  1192.67        2500.00        2681.05     
  1191.10        2500.00        2681.15     
  1189.54        2500.00        2681.26     
  1187.97        2500.00        2681.36     
  1186.40        2500.00        2681.46     
  1184.84        2500.00        2681.56     
  1183.27        2500.00        2681.67     
  1181.70        2500.00        2681.77     
  1180.14        2500.00        2681.87     
  1178.57        2500.00        2681.97     
  1177.01        2500.00        2682.07     
  1175.44        2500.00        2682.16     
  1173.87        2500.00        2682.26     
  1172.31        2500.00        2682.37     
  1170.74        2500.00        2682.47     
  1169.17        2500.00        2682.57     
  1167.61        2500.00        2682.66     
  1166.04        2500.00        2682.76     
  1164.47        2500.00        2682.86     
  1162.91        2500.00        2682.95     
  1161.34        2500.00        2683.05     
  1159.77        2500.00        2683.14     
  1158.21        2500.00        2683.23     
  1156.64        2500.00        2683.33     
  1155.08        2500.00        2683.43     
  1153.51        2500.00        2682.75     
  1151.94        2500.00        2683.61     
  1150.38        2500.00        2683.71     
  1148.81        2500.00        2683.78     
  1147.24        2500.00        2683.87     
  1145.68        2500.00        2683.96     
  1144.11        2500.00        2684.08     
  1142.54        2500.00        2684.17     
  1140.98        2500.00        2684.24     
  1139.41        2500.00        2684.33     
  1137.84        2500.00        2684.38     
  1136.28        2500.00        2684.53     
  1134.71        2500.00        2684.63     
  1133.15        2500.00        2684.72     
  1131.58        2500.00        2684.80     
  1130.01        2500.00        2684.90     
  1128.45        2500.00        2684.99     
  1126.88        2500.00        2685.09     
  1125.31        2500.00        2685.18     
  1123.75        2500.00        2685.27     
  1122.18        2500.00        2685.36     
  1120.61        2500.00        2685.45     
  1119.05        2500.00        2685.60     
  1117.48        2500.00        2685.84     
  1115.91        2500.00        2686.11     
  1114.35        2500.00        2686.35     
  1112.78        2500.00        2686.57     
  1111.22        2500.00        2686.83     
  1109.65        2500.00        2687.08     
  1108.08        2500.00        2687.62     
  1106.52        2500.00        2687.69     
  1104.95        2500.00        2687.86     
  1103.38        2500.00        2688.12     
  1101.82        2500.00        2688.39     
  1100.25        2500.00        2688.66     
  1098.68        2500.00        2688.33     
  1097.12        2500.00        2688.24     
  1095.55        2500.00        2689.51     
  1093.98        2500.00        2689.88     
  1092.42        2500.00        2690.19     
  1090.85        2500.00        2690.53     
  1089.29        2500.00        2690.87     
  1087.72        2500.00        2691.23     
  1086.15        2500.00        2691.59     
  1084.59        2500.00        2691.90     
  1083.02        2500.00        2692.32     
  1081.45        2500.00        2692.71     
  1079.89        2500.00        2693.08     
  1078.32        2500.00        2693.51     
  1076.75        2500.00        2693.86     
  1075.19        2500.00        2694.26     
  1073.62        2500.00        2694.67     
  1072.06        2500.00        2695.09     
  1070.49        2500.00        2695.15     
  1068.92        2500.00        2696.05     
  1067.36        2500.00        2696.92     
  1065.79        2500.00        2697.50     
  1064.22        2500.00        2698.09     
  1062.66        2500.00        2697.79     
  1061.09        2500.00        2698.27     
  1059.52        2500.00        2700.10     
  1057.96        2500.00        2700.83     
  1056.39        2500.00        2701.60     
  1054.82        2500.00        2702.52     
  1053.26        2500.00        2702.59     
  1051.69        2500.00        2702.65     
  1050.13        2500.00        2702.72     
  1048.56        2500.00        2702.79     
  1046.99        2500.00        2702.86     
  1045.43        2500.00        2702.93     
  1043.86        2500.00        2703.00     
  1042.29        2500.00        2703.07     
  1040.73        2500.00        2703.14     
  1039.16        2500.00        2703.22     
  1037.59        2500.00        2703.30     
  1036.03        2500.00        2703.38     
  1034.46        2500.00        2703.46     
  1032.89        2500.00        2703.54     
  1031.33        2500.00        2703.62     
  1029.76        2500.00        2703.70     
  1028.20        2500.00        2703.70     
  1026.63        2500.00        2703.77     
  1025.06        2500.00        2703.85     
  1023.50        2500.00        2703.98     
  1021.93        2500.00        2704.07     
  1020.36        2500.00        2704.14     
  1018.80        2500.00        2704.22     
  1017.23        2500.00        2704.29     
  1015.66        2500.00        2704.36     
  1014.10        2500.00        2704.43     
  1012.53        2500.00        2704.51     
  1010.96        2500.00        2704.58     
  1009.40        2500.00        2704.66     
  1007.83        2500.00        2704.73     
  1006.27        2500.00        2704.80     
  1004.70        2500.00        2704.83     
  1003.13        2500.00        2704.95     
  1001.57        2500.00        2704.99     
  1000.00        2500.00        2705.04     
