|6.6.6
Archiving\03_Data\fracLP/QFM_m4.5/KHA22/KHA22_6.tab                       
           1
T(K)    
  0.000000000000000E+000
  0.000000000000000E+000
           0
           3
T(K)           P(bar)         rho,kg/m3     
  2000.00        500.000        5145.98     
  1997.49        500.000        5146.73     
  1994.99        500.000        5147.49     
  1992.48        500.000        5148.24     
  1989.97        500.000        5149.00     
  1987.47        500.000        5149.75     
  1984.96        500.000        5150.50     
  1982.46        500.000        5151.26     
  1979.95        500.000        5152.01     
  1977.44        500.000        5152.76     
  1974.94        500.000        5153.51     
  1972.43        500.000        5154.26     
  1969.92        500.000        5155.01     
  1967.42        500.000        5155.76     
  1964.91        500.000        5156.51     
  1962.41        500.000        5157.26     
  1959.90        500.000        5158.01     
  1957.39        500.000        5158.76     
  1954.89        500.000        5159.51     
  1952.38        500.000        5160.26     
  1949.87        500.000        5161.00     
  1947.37        500.000        5161.75     
  1944.86        500.000        5162.50     
  1942.36        500.000        5163.24     
  1939.85        500.000        5163.99     
  1937.34        500.000        5164.74     
  1934.84        500.000        5165.48     
  1932.33        500.000        5166.22     
  1929.82        500.000        5166.97     
  1927.32        500.000        5167.71     
  1924.81        500.000        5168.46     
  1922.31        500.000        5169.20     
  1919.80        500.000        5169.94     
  1917.29        500.000        5170.68     
  1914.79        500.000        5171.42     
  1912.28        500.000        5172.17     
  1909.77        500.000        3919.24     
  1907.27        500.000        3135.85     
  1904.76        500.000        3137.27     
  1902.26        500.000        3138.77     
  1899.75        500.000        3140.57     
  1897.24        500.000        3141.36     
  1894.74        500.000        3143.08     
  1892.23        500.000        3144.68     
  1889.72        500.000        3145.89     
  1887.22        500.000        3147.57     
  1884.71        500.000        3149.09     
  1882.21        500.000        3149.83     
  1879.70        500.000        3151.77     
  1877.19        500.000        3153.69     
  1874.69        500.000        3154.61     
  1872.18        500.000        3155.78     
  1869.67        500.000        3157.46     
  1867.17        500.000        3159.95     
  1864.66        500.000        3160.60     
  1862.16        500.000        3161.64     
  1859.65        500.000        3163.62     
  1857.14        500.000        3165.50     
  1854.64        500.000        3191.06     
  1852.13        500.000        3191.70     
  1849.62        500.000        3192.95     
  1847.12        500.000        3195.44     
  1844.61        500.000        3197.00     
  1842.11        500.000        3198.42     
  1839.60        500.000        3199.61     
  1837.09        500.000        3201.36     
  1834.59        500.000        3202.89     
  1832.08        500.000        3204.62     
  1829.57        500.000        3205.91     
  1827.07        500.000        3207.68     
  1824.56        500.000        3209.72     
  1822.06        500.000        3210.84     
  1819.55        500.000        3211.93     
  1817.04        500.000        3213.59     
  1814.54        500.000        3215.36     
  1812.03        500.000        3216.95     
  1809.52        500.000        3218.50     
  1807.02        500.000        3220.08     
  1804.51        500.000        3221.91     
  1802.01        500.000        3223.06     
  1799.50        500.000        3224.56     
  1796.99        500.000        3226.31     
  1794.49        500.000        3228.16     
  1791.98        500.000        3229.52     
  1789.47        500.000        3231.05     
  1786.97        500.000        3232.47     
  1784.46        500.000        3234.35     
  1781.95        500.000        3235.60     
  1779.45        500.000        3237.41     
  1776.94        500.000        3238.75     
  1774.44        500.000        3240.18     
  1771.93        500.000        3241.98     
  1769.42        500.000        3243.23     
  1766.92        500.000        3244.37     
  1764.41        500.000        3246.32     
  1761.90        500.000        3248.03     
  1759.40        500.000        3249.50     
  1756.89        500.000        3254.40     
  1754.39        500.000        3251.42     
  1751.88        500.000        3254.78     
  1749.37        500.000        3255.42     
  1746.87        500.000        3257.24     
  1744.36        500.000        3258.70     
  1741.85        500.000        3260.23     
  1739.35        500.000        3261.41     
  1736.84        500.000        3263.30     
  1734.34        500.000        3264.85     
  1731.83        500.000        3267.27     
  1729.32        500.000        3268.25     
  1726.82        500.000        3268.41     
  1724.31        500.000        3271.23     
  1721.80        500.000        3272.76     
  1719.30        500.000        3273.69     
  1716.79        500.000        3275.06     
  1714.29        500.000        3277.23     
  1711.78        500.000        3278.41     
  1709.27        500.000        3279.92     
  1706.77        500.000        3280.55     
  1704.26        500.000        3282.72     
  1701.75        500.000        3285.34     
  1699.25        500.000        3285.75     
  1696.74        500.000        3287.25     
  1694.24        500.000        3288.58     
  1691.73        500.000        3290.03     
  1689.22        500.000        3291.33     
  1686.72        500.000        3293.75     
  1684.21        500.000        3294.42     
  1681.70        500.000        3295.98     
  1679.20        500.000        3297.95     
  1676.69        500.000        3299.42     
  1674.19        500.000        3300.18     
  1671.68        500.000        3300.79     
  1669.17        500.000        3305.29     
  1666.67        500.000        3286.12     
  1664.16        500.000        3306.65     
  1661.65        500.000        3306.02     
  1659.15        500.000        3308.34     
  1656.64        500.000        3309.65     
  1654.14        500.000        3311.66     
  1651.63        500.000        3312.74     
  1649.12        500.000        3314.51     
  1646.62        500.000        3314.45     
  1644.11        500.000        3316.44     
  1641.60        500.000        3318.98     
  1639.10        500.000        3318.86     
  1636.59        500.000        3320.26     
  1634.09        500.000        3328.33     
  1631.58        500.000        3322.91     
  1629.07        500.000        3324.27     
  1626.57        500.000        3325.76     
  1624.06        500.000        3326.55     
  1621.55        500.000        3328.23     
  1619.05        500.000        3330.92     
  1616.54        500.000        3329.85     
  1614.04        500.000        3332.16     
  1611.53        500.000        3333.32     
  1609.02        500.000        3334.00     
  1606.52        500.000        3335.78     
  1604.01        500.000        3336.62     
  1601.50        500.000        3338.01     
  1599.00        500.000        3339.42     
  1596.49        500.000        3340.00     
  1593.98        500.000        3341.91     
  1591.48        500.000        3240.91     
  1588.97        500.000        3237.77     
  1586.47        500.000        3238.89     
  1583.96        500.000        3238.20     
  1581.45        500.000        3238.55     
  1578.95        500.000        3242.19     
  1576.44        500.000        3241.38     
  1573.93        500.000        3241.89     
  1571.43        500.000        3242.10     
  1568.92        500.000        3242.25     
  1566.42        500.000        3243.41     
  1563.91        500.000        3244.21     
  1561.40        500.000        3245.44     
  1558.90        500.000        3245.24     
  1556.39        500.000        3246.56     
  1553.88        500.000        3247.35     
  1551.38        500.000        3247.64     
  1548.87        500.000        3248.33     
  1546.37        500.000        3248.42     
  1543.86        500.000        3250.26     
  1541.35        500.000        3249.95     
  1538.85        500.000        3251.26     
  1536.34        500.000        3251.45     
  1533.83        500.000        3251.59     
  1531.33        500.000        3252.52     
  1528.82        500.000        3253.89     
  1526.32        500.000        3255.32     
  1523.81        500.000        3258.66     
  1521.30        500.000        3259.37     
  1518.80        500.000        3258.33     
  1516.29        500.000        3256.46     
  1513.78        500.000        3257.53     
  1511.28        500.000        3258.35     
  1508.77        500.000        3261.08     
  1506.27        500.000        3259.54     
  1503.76        500.000        3261.58     
  1501.25        500.000        3261.78     
  1498.75        500.000        3262.61     
  1496.24        500.000        3263.91     
  1493.73        500.000        3268.28     
  1491.23        500.000        3265.65     
  1488.72        500.000        3266.64     
  1486.22        500.000        3266.17     
  1483.71        500.000        3256.83     
  1481.20        500.000        3255.29     
  1478.70        500.000        3256.53     
  1476.19        500.000        3257.44     
  1473.68        500.000        3258.53     
  1471.18        500.000        3259.45     
  1468.67        500.000        3260.96     
  1466.17        500.000        3262.31     
  1463.66        500.000        3263.25     
  1461.15        500.000        3264.38     
  1458.65        500.000        3266.20     
  1456.14        500.000        3266.15     
  1453.63        500.000        3268.78     
  1451.13        500.000        3271.35     
  1448.62        500.000        3270.38     
  1446.12        500.000        3272.02     
  1443.61        500.000        3276.08     
  1441.10        500.000        3274.83     
  1438.60        500.000        3275.99     
  1436.09        500.000        3270.39     
  1433.58        500.000        3259.93     
  1431.08        500.000        3261.92     
  1428.57        500.000        3263.64     
  1426.07        500.000        3265.21     
  1423.56        500.000        3266.74     
  1421.05        500.000        3268.64     
  1418.55        500.000        3270.75     
  1416.04        500.000        3272.27     
  1413.53        500.000        3138.29     
  1411.03        500.000        3093.83     
  1408.52        500.000        3095.92     
  1406.02        500.000        3097.75     
  1403.51        500.000        3099.56     
  1401.00        500.000        3101.27     
  1398.50        500.000        3103.39     
  1395.99        500.000        3105.12     
  1393.48        500.000        3106.96     
  1390.98        500.000        3108.79     
  1388.47        500.000        3110.88     
  1385.96        500.000        3112.69     
  1383.46        500.000        3114.57     
  1380.95        500.000        3116.49     
  1378.45        500.000        3118.52     
  1375.94        500.000        3120.29     
  1373.43        500.000        3121.96     
  1370.93        500.000        3124.04     
  1368.42        500.000        3125.87     
  1365.91        500.000        3127.76     
  1363.41        500.000        3129.86     
  1360.90        500.000        3131.75     
  1358.40        500.000        3133.56     
  1355.89        500.000        3135.58     
  1353.38        500.000        3137.34     
  1350.88        500.000        3139.46     
  1348.37        500.000        3141.28     
  1345.86        500.000        3143.16     
  1343.36        500.000        3145.15     
  1340.85        500.000        3147.35     
  1338.35        500.000        3149.22     
  1335.84        500.000        3151.04     
  1333.33        500.000        3153.31     
  1330.83        500.000        3154.99     
  1328.32        500.000        3157.01     
  1325.81        500.000        3158.99     
  1323.31        500.000        3160.95     
  1320.80        500.000        3162.67     
  1318.30        500.000        3164.77     
  1315.79        500.000        3166.85     
  1313.28        500.000        3168.87     
  1310.78        500.000        3170.67     
  1308.27        500.000        3172.78     
  1305.76        500.000        3174.47     
  1303.26        500.000        3176.35     
  1300.75        500.000        3178.67     
  1298.25        500.000        3180.59     
  1295.74        500.000        3210.80     
  1293.23        500.000        3185.10     
  1290.73        500.000        2762.10     
  1288.22        500.000        2764.32     
  1285.71        500.000        2767.81     
  1283.21        500.000        2770.89     
  1280.70        500.000        2773.52     
  1278.20        500.000        2776.02     
  1275.69        500.000        2778.38     
  1273.18        500.000        2780.48     
  1270.68        500.000        2782.42     
  1268.17        500.000        2784.20     
  1265.66        500.000        2785.88     
  1263.16        500.000        2787.52     
  1260.65        500.000        2789.05     
  1258.15        500.000        2790.59     
  1255.64        500.000        2791.83     
  1253.13        500.000        2793.08     
  1250.63        500.000        2794.04     
  1248.12        500.000        2794.92     
  1245.61        500.000        2796.39     
  1243.11        500.000        2797.64     
  1240.60        500.000        2799.00     
  1238.10        500.000        2799.51     
  1235.59        500.000        2800.82     
  1233.08        500.000        2801.91     
  1230.58        500.000        2803.22     
  1228.07        500.000        2804.23     
  1225.56        500.000        2805.09     
  1223.06        500.000        2806.14     
  1220.55        500.000        2807.54     
  1218.05        500.000        2808.05     
  1215.54        500.000        2809.08     
  1213.03        500.000        2810.21     
  1210.53        500.000        2690.84     
  1208.02        500.000        2658.81     
  1205.51        500.000        2662.40     
  1203.01        500.000        2666.47     
  1200.50        500.000        2664.41     
  1197.99        500.000        2661.58     
  1195.49        500.000        2628.98     
  1192.98        500.000        2675.28     
  1190.48        500.000        2631.22     
  1187.97        500.000        2631.16     
  1185.46        500.000        2630.87     
  1182.96        500.000        2630.92     
  1180.45        500.000        2630.96     
  1177.94        500.000        2631.00     
  1175.44        500.000        2631.05     
  1172.93        500.000        2631.09     
  1170.43        500.000        2631.14     
  1167.92        500.000        2630.95     
  1165.41        500.000        2631.05     
  1162.91        500.000        2631.16     
  1160.40        500.000        2631.26     
  1157.89        500.000        2631.36     
  1155.39        500.000        2631.42     
  1152.88        500.000        2631.48     
  1150.38        500.000        2631.51     
  1147.87        500.000        2631.57     
  1145.36        500.000        2631.62     
  1142.86        500.000        2631.67     
  1140.35        500.000        2631.73     
  1137.84        500.000        2631.78     
  1135.34        500.000        2631.84     
  1132.83        500.000        2631.90     
  1130.33        500.000        2631.96     
  1127.82        500.000        2633.82     
  1125.31        500.000        2632.51     
  1122.81        500.000        2632.59     
  1120.30        500.000        2632.66     
  1117.79        500.000        2634.24     
  1115.29        500.000        2633.86     
  1112.78        500.000        2633.96     
  1110.28        500.000        2634.62     
  1107.77        500.000        2634.16     
  1105.26        500.000        2633.90     
  1102.76        500.000        2632.66     
  1100.25        500.000        2632.73     
  1097.74        500.000        2632.80     
  1095.24        500.000        2635.29     
  1092.73        500.000        2633.92     
  1090.23        500.000        2634.00     
  1087.72        500.000        2635.58     
  1085.21        500.000        2634.78     
  1082.71        500.000        2633.25     
  1080.20        500.000        2635.93     
  1077.69        500.000        2636.04     
  1075.19        500.000        2636.14     
  1072.68        500.000        2634.45     
  1070.18        500.000        2635.00     
  1067.67        500.000        2634.53     
  1065.16        500.000        2634.98     
  1062.66        500.000        2635.48     
  1060.15        500.000        2634.76     
  1057.64        500.000        2634.87     
  1055.14        500.000        2636.31     
  1052.63        500.000        2636.02     
  1050.13        500.000        2636.37     
  1047.62        500.000        2634.65     
  1045.11        500.000        2635.57     
  1042.61        500.000        2634.52     
  1040.10        500.000        2635.54     
  1037.59        500.000        2635.55     
  1035.09        500.000        2635.57     
  1032.58        500.000        2635.68     
  1030.08        500.000        2635.15     
  1027.57        500.000        2635.67     
  1025.06        500.000        2632.08     
  1022.56        500.000        2632.18     
  1020.05        500.000        2632.29     
  1017.54        500.000        2632.39     
  1015.04        500.000        2632.49     
  1012.53        500.000        2632.60     
  1010.03        500.000        2632.70     
  1007.52        500.000        2632.81     
  1005.01        500.000        2632.91     
  1002.51        500.000        2633.02     
  1000.00        500.000        2633.12     
