|6.6.6
Archiving\03_Data\fracLP/QFM_m3.5/TAY13/TAY13_6.tab                       
           1
T(K)    
  0.000000000000000E+000
  0.000000000000000E+000
           0
           3
T(K)           P(bar)         rho,kg/m3     
  2000.00        500.000        5053.94     
  1997.49        500.000        5054.68     
  1994.99        500.000        5055.41     
  1992.48        500.000        5056.15     
  1989.97        500.000        5056.89     
  1987.47        500.000        5057.62     
  1984.96        500.000        5058.36     
  1982.46        500.000        5059.09     
  1979.95        500.000        5059.83     
  1977.44        500.000        5060.56     
  1974.94        500.000        5061.29     
  1972.43        500.000        5062.03     
  1969.92        500.000        5062.76     
  1967.42        500.000        5063.49     
  1964.91        500.000        5064.22     
  1962.41        500.000        5064.95     
  1959.90        500.000        5065.69     
  1957.39        500.000        5066.42     
  1954.89        500.000        5067.15     
  1952.38        500.000        5067.88     
  1949.87        500.000        5068.60     
  1947.37        500.000        5069.33     
  1944.86        500.000        5070.06     
  1942.36        500.000        5070.79     
  1939.85        500.000        5071.52     
  1937.34        500.000        5072.25     
  1934.84        500.000        5072.97     
  1932.33        500.000        5073.70     
  1929.82        500.000        5074.43     
  1927.32        500.000        5075.15     
  1924.81        500.000        5075.88     
  1922.31        500.000        5076.60     
  1919.80        500.000        5077.33     
  1917.29        500.000        5078.05     
  1914.79        500.000        4496.02     
  1912.28        500.000        3163.64     
  1909.77        500.000        3165.08     
  1907.27        500.000        3166.82     
  1904.76        500.000        3168.57     
  1902.26        500.000        3170.43     
  1899.75        500.000        3172.21     
  1897.24        500.000        3173.96     
  1894.74        500.000        3175.73     
  1892.23        500.000        3177.74     
  1889.72        500.000        3179.17     
  1887.22        500.000        3180.61     
  1884.71        500.000        3182.36     
  1882.21        500.000        3184.44     
  1879.70        500.000        3186.56     
  1877.19        500.000        3188.24     
  1874.69        500.000        3189.86     
  1872.18        500.000        3191.79     
  1869.67        500.000        3194.08     
  1867.17        500.000        3195.45     
  1864.66        500.000        3197.85     
  1862.16        500.000        3199.92     
  1859.65        500.000        3200.64     
  1857.14        500.000        3203.38     
  1854.64        500.000        3204.49     
  1852.13        500.000        3215.28     
  1849.62        500.000        3209.79     
  1847.12        500.000        3231.34     
  1844.61        500.000        3233.38     
  1842.11        500.000        3235.51     
  1839.60        500.000        3237.75     
  1837.09        500.000        3239.30     
  1834.59        500.000        3241.45     
  1832.08        500.000        3244.54     
  1829.57        500.000        3244.93     
  1827.07        500.000        3247.18     
  1824.56        500.000        3248.93     
  1822.06        500.000        3250.99     
  1819.55        500.000        3253.07     
  1817.04        500.000        3254.78     
  1814.54        500.000        3256.76     
  1812.03        500.000        3259.19     
  1809.52        500.000        3260.60     
  1807.02        500.000        3262.74     
  1804.51        500.000        3265.24     
  1802.01        500.000        3266.51     
  1799.50        500.000        3269.02     
  1796.99        500.000        3270.75     
  1794.49        500.000        3273.24     
  1791.98        500.000        3274.51     
  1789.47        500.000        3276.35     
  1786.97        500.000        3279.21     
  1784.46        500.000        3280.65     
  1781.95        500.000        3283.93     
  1779.45        500.000        3284.71     
  1776.94        500.000        3286.44     
  1774.44        500.000        3288.52     
  1771.93        500.000        3290.76     
  1769.42        500.000        3292.48     
  1766.92        500.000        3294.49     
  1764.41        500.000        3296.84     
  1761.90        500.000        3299.20     
  1759.40        500.000        3300.94     
  1756.89        500.000        3303.22     
  1754.39        500.000        3304.81     
  1751.88        500.000        3307.19     
  1749.37        500.000        3308.90     
  1746.87        500.000        3314.83     
  1744.36        500.000        3311.80     
  1741.85        500.000        3315.93     
  1739.35        500.000        3318.41     
  1736.84        500.000        3318.16     
  1734.34        500.000        3321.19     
  1731.83        500.000        3323.02     
  1729.32        500.000        3325.52     
  1726.82        500.000        3327.32     
  1724.31        500.000        3330.74     
  1721.80        500.000        3332.11     
  1719.30        500.000        3333.94     
  1716.79        500.000        3335.83     
  1714.29        500.000        3337.85     
  1711.78        500.000        3339.68     
  1709.27        500.000        3343.03     
  1706.77        500.000        3344.55     
  1704.26        500.000        3346.04     
  1701.75        500.000        3348.05     
  1699.25        500.000        3349.68     
  1696.74        500.000        3352.20     
  1694.24        500.000        3354.42     
  1691.73        500.000        3356.39     
  1689.22        500.000        3358.66     
  1686.72        500.000        3359.50     
  1684.21        500.000        3361.78     
  1681.70        500.000        3363.39     
  1679.20        500.000        3365.18     
  1676.69        500.000        3368.40     
  1674.19        500.000        3370.56     
  1671.68        500.000        3372.09     
  1669.17        500.000        3374.03     
  1666.67        500.000        3375.04     
  1664.16        500.000        3377.42     
  1661.65        500.000        3380.02     
  1659.15        500.000        3381.97     
  1656.64        500.000        3384.93     
  1654.14        500.000        3385.22     
  1651.63        500.000        3387.80     
  1649.12        500.000        3389.19     
  1646.62        500.000        3391.30     
  1644.11        500.000        3393.73     
  1641.60        500.000        3395.23     
  1639.10        500.000        3396.44     
  1636.59        500.000        3399.32     
  1634.09        500.000        3400.96     
  1631.58        500.000        3402.70     
  1629.07        500.000        3405.12     
  1626.57        500.000        3407.31     
  1624.06        500.000        3408.42     
  1621.55        500.000        3410.81     
  1619.05        500.000        3411.39     
  1616.54        500.000        3413.41     
  1614.04        500.000        3415.69     
  1611.53        500.000        3418.48     
  1609.02        500.000        3420.32     
  1606.52        500.000        3422.46     
  1604.01        500.000        3424.46     
  1601.50        500.000        3425.07     
  1599.00        500.000        3427.25     
  1596.49        500.000        3429.66     
  1593.98        500.000        3430.98     
  1591.48        500.000        3434.06     
  1588.97        500.000        3429.47     
  1586.47        500.000        3436.02     
  1583.96        500.000        3436.93     
  1581.45        500.000        3439.91     
  1578.95        500.000        3443.30     
  1576.44        500.000        3443.66     
  1573.93        500.000        3445.43     
  1571.43        500.000        3446.80     
  1568.92        500.000        3448.75     
  1566.42        500.000        3453.26     
  1563.91        500.000        3439.88     
  1561.40        500.000        3301.04     
  1558.90        500.000        3301.79     
  1556.39        500.000        2827.39     
  1553.88        500.000        3305.98     
  1551.38        500.000        3303.51     
  1548.87        500.000        3306.91     
  1546.37        500.000        3307.90     
  1543.86        500.000        3309.47     
  1541.35        500.000        3310.68     
  1538.85        500.000        3310.13     
  1536.34        500.000        3317.13     
  1533.83        500.000        3313.26     
  1531.33        500.000        3315.10     
  1528.82        500.000        3312.98     
  1526.32        500.000        3389.70     
  1523.81        500.000        3317.03     
  1521.30        500.000        3317.05     
  1518.80        500.000        3319.74     
  1516.29        500.000        3321.85     
  1513.78        500.000        3321.55     
  1511.28        500.000        3324.33     
  1508.77        500.000        3324.36     
  1506.27        500.000        3331.77     
  1503.76        500.000        3327.06     
  1501.25        500.000        3327.92     
  1498.75        500.000        3328.89     
  1496.24        500.000        3328.49     
  1493.73        500.000        3330.62     
  1491.23        500.000        3330.83     
  1488.72        500.000        3333.55     
  1486.22        500.000        3334.63     
  1483.71        500.000        3333.67     
  1481.20        500.000        3335.73     
  1478.70        500.000        3335.65     
  1476.19        500.000        3336.25     
  1473.68        500.000        3336.97     
  1471.18        500.000        3330.63     
  1468.67        500.000        3324.56     
  1466.17        500.000        3326.04     
  1463.66        500.000        3327.43     
  1461.15        500.000        3328.99     
  1458.65        500.000        3338.40     
  1456.14        500.000        3333.42     
  1453.63        500.000        3334.16     
  1451.13        500.000        3335.70     
  1448.62        500.000        3339.74     
  1446.12        500.000        3339.59     
  1443.61        500.000        3340.77     
  1441.10        500.000        3343.01     
  1438.60        500.000        3345.02     
  1436.09        500.000        3346.27     
  1433.58        500.000        3347.64     
  1431.08        500.000        3350.62     
  1428.57        500.000        3351.13     
  1426.07        500.000        3352.71     
  1423.56        500.000        3354.19     
  1421.05        500.000        3355.51     
  1418.55        500.000        3356.14     
  1416.04        500.000        3336.94     
  1413.53        500.000        3326.26     
  1411.03        500.000        3328.72     
  1408.52        500.000        3330.85     
  1406.02        500.000        3333.13     
  1403.51        500.000        3265.50     
  1401.00        500.000        3138.33     
  1398.50        500.000        3141.14     
  1395.99        500.000        3143.96     
  1393.48        500.000        3146.52     
  1390.98        500.000        3149.36     
  1388.47        500.000        3151.99     
  1385.96        500.000        3154.82     
  1383.46        500.000        3157.66     
  1380.95        500.000        3160.43     
  1378.45        500.000        3163.06     
  1375.94        500.000        3165.99     
  1373.43        500.000        3168.81     
  1370.93        500.000        3171.24     
  1368.42        500.000        3174.17     
  1365.91        500.000        3177.26     
  1363.41        500.000        3180.36     
  1360.90        500.000        3182.83     
  1358.40        500.000        3185.73     
  1355.89        500.000        3188.54     
  1353.38        500.000        3196.05     
  1350.88        500.000        3230.40     
  1348.37        500.000        3234.09     
  1345.86        500.000        3237.32     
  1343.36        500.000        3240.40     
  1340.85        500.000        3243.16     
  1338.35        500.000        3246.76     
  1335.84        500.000        3249.06     
  1333.33        500.000        3253.23     
  1330.83        500.000        3256.00     
  1328.32        500.000        3259.15     
  1325.81        500.000        3262.66     
  1323.31        500.000        3265.28     
  1320.80        500.000        3268.19     
  1318.30        500.000        3271.29     
  1315.79        500.000        3274.03     
  1313.28        500.000        3277.03     
  1310.78        500.000        3280.02     
  1308.27        500.000        3282.78     
  1305.76        500.000        3285.53     
  1303.26        500.000        3288.31     
  1300.75        500.000        3291.15     
  1298.25        500.000        3295.38     
  1295.74        500.000        3294.50     
  1293.23        500.000        3298.64     
  1290.73        500.000        3300.84     
  1288.22        500.000        3303.49     
  1285.71        500.000        3305.63     
  1283.21        500.000        3308.52     
  1280.70        500.000        3310.16     
  1278.20        500.000        3311.91     
  1275.69        500.000        3248.56     
  1273.18        500.000        2811.40     
  1270.68        500.000        2810.69     
  1268.17        500.000        2812.05     
  1265.66        500.000        2815.70     
  1263.16        500.000        2818.80     
  1260.65        500.000        2821.81     
  1258.15        500.000        2824.63     
  1255.64        500.000        2826.88     
  1253.13        500.000        2829.92     
  1250.63        500.000        2832.95     
  1248.12        500.000        2834.77     
  1245.61        500.000        2837.40     
  1243.11        500.000        2839.76     
  1240.60        500.000        2842.13     
  1238.10        500.000        2844.35     
  1235.59        500.000        2846.00     
  1233.08        500.000        2848.14     
  1230.58        500.000        2850.32     
  1228.07        500.000        2854.72     
  1225.56        500.000        2854.42     
  1223.06        500.000        2854.35     
  1220.55        500.000        2854.39     
  1218.05        500.000        2854.36     
  1215.54        500.000        2853.08     
  1213.03        500.000        2716.46     
  1210.53        500.000        2679.55     
  1208.02        500.000        2680.37     
  1205.51        500.000        2680.13     
  1203.01        500.000        2678.23     
  1200.50        500.000        2668.16     
  1197.99        500.000        2676.28     
  1195.49        500.000        2669.62     
  1192.98        500.000        2657.96     
  1190.48        500.000        2635.06     
  1187.97        500.000        2628.81     
  1185.46        500.000        2628.92     
  1182.96        500.000        2629.03     
  1180.45        500.000        2629.14     
  1177.94        500.000        2629.25     
  1175.44        500.000        2629.39     
  1172.93        500.000        2629.45     
  1170.43        500.000        2629.58     
  1167.92        500.000        2629.68     
  1165.41        500.000        2629.79     
  1162.91        500.000        2629.90     
  1160.40        500.000        2630.01     
  1157.89        500.000        2630.12     
  1155.39        500.000        2630.23     
  1152.88        500.000        2630.34     
  1150.38        500.000        2630.44     
  1147.87        500.000        2630.55     
  1145.36        500.000        2630.66     
  1142.86        500.000        2630.77     
  1140.35        500.000        2630.87     
  1137.84        500.000        2630.98     
  1135.34        500.000        2631.07     
  1132.83        500.000        2631.18     
  1130.33        500.000        2631.29     
  1127.82        500.000        2631.40     
  1125.31        500.000        2631.51     
  1122.81        500.000        2631.61     
  1120.30        500.000        2631.71     
  1117.79        500.000        2631.82     
  1115.29        500.000        2631.92     
  1112.78        500.000        2631.96     
  1110.28        500.000        2632.08     
  1107.77        500.000        2632.19     
  1105.26        500.000        2632.30     
  1102.76        500.000        2632.41     
  1100.25        500.000        2632.52     
  1097.74        500.000        2632.63     
  1095.24        500.000        2632.74     
  1092.73        500.000        2632.84     
  1090.23        500.000        2632.95     
  1087.72        500.000        2633.06     
  1085.21        500.000        2633.16     
  1082.71        500.000        2633.27     
  1080.20        500.000        2633.41     
  1077.69        500.000        2633.54     
  1075.19        500.000        2631.77     
  1072.68        500.000        2630.50     
  1070.18        500.000        2631.73     
  1067.67        500.000        2631.72     
  1065.16        500.000        2631.73     
  1062.66        500.000        2631.75     
  1060.15        500.000        2631.78     
  1057.64        500.000        2631.13     
  1055.14        500.000        2631.85     
  1052.63        500.000        2631.89     
  1050.13        500.000        2631.95     
  1047.62        500.000        2631.99     
  1045.11        500.000        2632.04     
  1042.61        500.000        2632.09     
  1040.10        500.000        2632.15     
  1037.59        500.000        2632.21     
  1035.09        500.000        2632.27     
  1032.58        500.000        2631.99     
  1030.08        500.000        2632.41     
  1027.57        500.000        2632.47     
  1025.06        500.000        2632.54     
  1022.56        500.000        2632.61     
  1020.05        500.000        2632.68     
  1017.54        500.000        2632.62     
  1015.04        500.000        2632.72     
  1012.53        500.000        2632.82     
  1010.03        500.000        2632.92     
  1007.52        500.000        2633.03     
  1005.01        500.000        2633.13     
  1002.51        500.000        2633.24     
  1000.00        500.000        2633.34     
