|6.6.6
Archiving\03_Data\fracLP/QFM/GRV/GRV_6.tab                                
           1
T(K)    
  0.000000000000000E+000
  0.000000000000000E+000
           0
           3
T(K)           P(bar)         rho,kg/m3     
  2000.00        500.000        3552.33     
  1997.49        500.000        3552.70     
  1994.99        500.000        3553.07     
  1992.48        500.000        3553.44     
  1989.97        500.000        3553.81     
  1987.47        500.000        3554.18     
  1984.96        500.000        3554.55     
  1982.46        500.000        3554.92     
  1979.95        500.000        3555.29     
  1977.44        500.000        3555.66     
  1974.94        500.000        3556.03     
  1972.43        500.000        3556.40     
  1969.92        500.000        3556.77     
  1967.42        500.000        3557.14     
  1964.91        500.000        3557.50     
  1962.41        500.000        3557.87     
  1959.90        500.000        3558.24     
  1957.39        500.000        3558.61     
  1954.89        500.000        3558.98     
  1952.38        500.000        3559.35     
  1949.87        500.000        3559.72     
  1947.37        500.000        3560.08     
  1944.86        500.000        3560.45     
  1942.36        500.000        3560.82     
  1939.85        500.000        3561.19     
  1937.34        500.000        3561.56     
  1934.84        500.000        3561.92     
  1932.33        500.000        3562.29     
  1929.82        500.000        3562.66     
  1927.32        500.000        3563.03     
  1924.81        500.000        3563.39     
  1922.31        500.000        3563.76     
  1919.80        500.000        3564.13     
  1917.29        500.000        3564.49     
  1914.79        500.000        3564.86     
  1912.28        500.000        3565.23     
  1909.77        500.000        3565.59     
  1907.27        500.000        3565.96     
  1904.76        500.000        3566.32     
  1902.26        500.000        3566.69     
  1899.75        500.000        3567.06     
  1897.24        500.000        3567.42     
  1894.74        500.000        3567.79     
  1892.23        500.000        3568.15     
  1889.72        500.000        3568.52     
  1887.22        500.000        3568.88     
  1884.71        500.000        3569.25     
  1882.21        500.000        3569.61     
  1879.70        500.000        3569.98     
  1877.19        500.000        3570.34     
  1874.69        500.000        3570.71     
  1872.18        500.000        3571.07     
  1869.67        500.000        3571.44     
  1867.17        500.000        3571.80     
  1864.66        500.000        3572.16     
  1862.16        500.000        3572.53     
  1859.65        500.000        3572.89     
  1857.14        500.000        3573.25     
  1854.64        500.000        3573.62     
  1852.13        500.000        3573.98     
  1849.62        500.000        3574.35     
  1847.12        500.000        3574.71     
  1844.61        500.000        3575.07     
  1842.11        500.000        3575.43     
  1839.60        500.000        3575.80     
  1837.09        500.000        3576.16     
  1834.59        500.000        3576.52     
  1832.08        500.000        3576.88     
  1829.57        500.000        3577.25     
  1827.07        500.000        3577.61     
  1824.56        500.000        3577.97     
  1822.06        500.000        3578.33     
  1819.55        500.000        3591.61     
  1817.04        500.000        3594.32     
  1814.54        500.000        3610.79     
  1812.03        500.000        3579.86     
  1809.52        500.000        3593.25     
  1807.02        500.000        3595.31     
  1804.51        500.000        3594.56     
  1802.01        500.000        3596.86     
  1799.50        500.000        3596.20     
  1796.99        500.000        3596.29     
  1794.49        500.000        3596.64     
  1791.98        500.000        3599.27     
  1789.47        500.000        3594.72     
  1786.97        500.000        3597.42     
  1784.46        500.000        3597.67     
  1781.95        500.000        3597.97     
  1779.45        500.000        3598.28     
  1776.94        500.000        3598.54     
  1774.44        500.000        3598.61     
  1771.93        500.000        3599.03     
  1769.42        500.000        3601.07     
  1766.92        500.000        3595.18     
  1764.41        500.000        3602.31     
  1761.90        500.000        3600.09     
  1759.40        500.000        3600.32     
  1756.89        500.000        3600.64     
  1754.39        500.000        3600.90     
  1751.88        500.000        3601.15     
  1749.37        500.000        3601.45     
  1746.87        500.000        3601.68     
  1744.36        500.000        3601.95     
  1741.85        500.000        3602.23     
  1739.35        500.000        3523.98     
  1736.84        500.000        3258.10     
  1734.34        500.000        3307.61     
  1731.83        500.000        3248.35     
  1729.32        500.000        3254.76     
  1726.82        500.000        3270.24     
  1724.31        500.000        3272.41     
  1721.80        500.000        3273.55     
  1719.30        500.000        3275.15     
  1716.79        500.000        3276.94     
  1714.29        500.000        3278.53     
  1711.78        500.000        3279.75     
  1709.27        500.000        3282.32     
  1706.77        500.000        3283.57     
  1704.26        500.000        3285.40     
  1701.75        500.000        3286.66     
  1699.25        500.000        3288.23     
  1696.74        500.000        3290.33     
  1694.24        500.000        3291.89     
  1691.73        500.000        3293.55     
  1689.22        500.000        3295.21     
  1686.72        500.000        3296.85     
  1684.21        500.000        3301.09     
  1681.70        500.000        3299.92     
  1679.20        500.000        3302.94     
  1676.69        500.000        3303.13     
  1674.19        500.000        3305.75     
  1671.68        500.000        3306.63     
  1669.17        500.000        3308.66     
  1666.67        500.000        3309.10     
  1664.16        500.000        3311.41     
  1661.65        500.000        3312.78     
  1659.15        500.000        3314.85     
  1656.64        500.000        3316.64     
  1654.14        500.000        3318.22     
  1651.63        500.000        3317.57     
  1649.12        500.000        3321.30     
  1646.62        500.000        3322.37     
  1644.11        500.000        3324.48     
  1641.60        500.000        3324.77     
  1639.10        500.000        3327.26     
  1636.59        500.000        3329.29     
  1634.09        500.000        3330.23     
  1631.58        500.000        3333.66     
  1629.07        500.000        3335.34     
  1626.57        500.000        3320.27     
  1624.06        500.000        3336.25     
  1621.55        500.000        3337.85     
  1619.05        500.000        3260.10     
  1616.54        500.000        3227.69     
  1614.04        500.000        3228.91     
  1611.53        500.000        3229.77     
  1609.02        500.000        3230.60     
  1606.52        500.000        3231.57     
  1604.01        500.000        3232.20     
  1601.50        500.000        3233.50     
  1599.00        500.000        3234.13     
  1596.49        500.000        3235.28     
  1593.98        500.000        3235.99     
  1591.48        500.000        3239.07     
  1588.97        500.000        3238.26     
  1586.47        500.000        3239.35     
  1583.96        500.000        3240.84     
  1581.45        500.000        3241.70     
  1578.95        500.000        3242.85     
  1576.44        500.000        3244.21     
  1573.93        500.000        3245.58     
  1571.43        500.000        3246.56     
  1568.92        500.000        3247.81     
  1566.42        500.000        3248.84     
  1563.91        500.000        3250.19     
  1561.40        500.000        3251.12     
  1558.90        500.000        3252.32     
  1556.39        500.000        3253.59     
  1553.88        500.000        3254.75     
  1551.38        500.000        3255.94     
  1548.87        500.000        3258.42     
  1546.37        500.000        3260.67     
  1543.86        500.000        3259.41     
  1541.35        500.000        3262.82     
  1538.85        500.000        3262.67     
  1536.34        500.000        3263.56     
  1533.83        500.000        3265.60     
  1531.33        500.000        3266.78     
  1528.82        500.000        3267.69     
  1526.32        500.000        3268.74     
  1523.81        500.000        3270.24     
  1521.30        500.000        3272.01     
  1518.80        500.000        3273.23     
  1516.29        500.000        3274.04     
  1513.78        500.000        3261.80     
  1511.28        500.000        3254.36     
  1508.77        500.000        3257.00     
  1506.27        500.000        3259.53     
  1503.76        500.000        3262.12     
  1501.25        500.000        3264.70     
  1498.75        500.000        3267.33     
  1496.24        500.000        3269.91     
  1493.73        500.000        3272.72     
  1491.23        500.000        3274.81     
  1488.72        500.000        3277.60     
  1486.22        500.000        3280.02     
  1483.71        500.000        3282.46     
  1481.20        500.000        3285.93     
  1478.70        500.000        3287.63     
  1476.19        500.000        3290.22     
  1473.68        500.000        3292.76     
  1471.18        500.000        3295.36     
  1468.67        500.000        3297.91     
  1466.17        500.000        3300.43     
  1463.66        500.000        3303.00     
  1461.15        500.000        3305.40     
  1458.65        500.000        3308.14     
  1456.14        500.000        3310.55     
  1453.63        500.000        3313.25     
  1451.13        500.000        3316.40     
  1448.62        500.000        3318.84     
  1446.12        500.000        3321.21     
  1443.61        500.000        3323.84     
  1441.10        500.000        3326.60     
  1438.60        500.000        3328.90     
  1436.09        500.000        3331.58     
  1433.58        500.000        3334.52     
  1431.08        500.000        3337.08     
  1428.57        500.000        3339.79     
  1426.07        500.000        3342.65     
  1423.56        500.000        3345.58     
  1421.05        500.000        3348.39     
  1418.55        500.000        3352.03     
  1416.04        500.000        3354.39     
  1413.53        500.000        3357.64     
  1411.03        500.000        3360.56     
  1408.52        500.000        3363.82     
  1406.02        500.000        3366.92     
  1403.51        500.000        3369.97     
  1401.00        500.000        3373.30     
  1398.50        500.000        3376.54     
  1395.99        500.000        3379.50     
  1393.48        500.000        3382.77     
  1390.98        500.000        3385.96     
  1388.47        500.000        3389.14     
  1385.96        500.000        3395.01     
  1383.46        500.000        3408.36     
  1380.95        500.000        3411.78     
  1378.45        500.000        3415.05     
  1375.94        500.000        3418.79     
  1373.43        500.000        3422.05     
  1370.93        500.000        3428.11     
  1368.42        500.000        3399.33     
  1365.91        500.000        3263.44     
  1363.41        500.000        3273.48     
  1360.90        500.000        3282.48     
  1358.40        500.000        3296.02     
  1355.89        500.000        3317.07     
  1353.38        500.000        3348.41     
  1350.88        500.000        3379.52     
  1348.37        500.000        3398.60     
  1345.86        500.000        3408.22     
  1343.36        500.000        3413.81     
  1340.85        500.000        3417.38     
  1338.35        500.000        3420.33     
  1335.84        500.000        3422.86     
  1333.33        500.000        3425.09     
  1330.83        500.000        3427.18     
  1328.32        500.000        3428.99     
  1325.81        500.000        3430.79     
  1323.31        500.000        3432.40     
  1320.80        500.000        3434.07     
  1318.30        500.000        3435.65     
  1315.79        500.000        3437.05     
  1313.28        500.000        3438.57     
  1310.78        500.000        3439.87     
  1308.27        500.000        3441.10     
  1305.76        500.000        3442.28     
  1303.26        500.000        3443.49     
  1300.75        500.000        3444.51     
  1298.25        500.000        3445.46     
  1295.74        500.000        3446.44     
  1293.23        500.000        3447.29     
  1290.73        500.000        3448.12     
  1288.22        500.000        3448.78     
  1285.71        500.000        3449.54     
  1283.21        500.000        3450.00     
  1280.70        500.000        3450.62     
  1278.20        500.000        3451.05     
  1275.69        500.000        3451.27     
  1273.18        500.000        3451.57     
  1270.68        500.000        3451.77     
  1268.17        500.000        3451.90     
  1265.66        500.000        3452.05     
  1263.16        500.000        3451.81     
  1260.65        500.000        3451.81     
  1258.15        500.000        3451.29     
  1255.64        500.000        3451.23     
  1253.13        500.000        3451.18     
  1250.63        500.000        3450.61     
  1248.12        500.000        2922.97     
  1245.61        500.000        2878.94     
  1243.11        500.000        2879.26     
  1240.60        500.000        2879.23     
  1238.10        500.000        2878.82     
  1235.59        500.000        2878.11     
  1233.08        500.000        2843.44     
  1230.58        500.000        2938.03     
  1228.07        500.000        2839.01     
  1225.56        500.000        3679.27     
  1223.06        500.000        2876.46     
  1220.55        500.000        2870.88     
  1218.05        500.000        2867.16     
  1215.54        500.000        2682.20     
  1213.03        500.000        2678.40     
  1210.53        500.000        2677.14     
  1208.02        500.000        2674.88     
  1205.51        500.000        2675.86     
  1203.01        500.000        2673.11     
  1200.50        500.000        2668.98     
  1197.99        500.000        2669.80     
  1195.49        500.000        2664.47     
  1192.98        500.000        2652.61     
  1190.48        500.000        2661.12     
  1187.97        500.000        2640.86     
  1185.46        500.000        2625.09     
  1182.96        500.000        2625.22     
  1180.45        500.000        2625.31     
  1177.94        500.000        2625.43     
  1175.44        500.000        2625.59     
  1172.93        500.000        2625.70     
  1170.43        500.000        2625.81     
  1167.92        500.000        2625.95     
  1165.41        500.000        2626.07     
  1162.91        500.000        2626.16     
  1160.40        500.000        2626.27     
  1157.89        500.000        2626.47     
  1155.39        500.000        2626.59     
  1152.88        500.000        2626.71     
  1150.38        500.000        2626.81     
  1147.87        500.000        2626.93     
  1145.36        500.000        2627.07     
  1142.86        500.000        2627.19     
  1140.35        500.000        2627.31     
  1137.84        500.000        2627.42     
  1135.34        500.000        2626.74     
  1132.83        500.000        2626.85     
  1130.33        500.000        2627.77     
  1127.82        500.000        2627.89     
  1125.31        500.000        2628.00     
  1122.81        500.000        2628.12     
  1120.30        500.000        2628.23     
  1117.79        500.000        2628.35     
  1115.29        500.000        2628.46     
  1112.78        500.000        2628.57     
  1110.28        500.000        2628.69     
  1107.77        500.000        2628.80     
  1105.26        500.000        2628.91     
  1102.76        500.000        2628.24     
  1100.25        500.000        2629.14     
  1097.74        500.000        2629.25     
  1095.24        500.000        2629.36     
  1092.73        500.000        2628.70     
  1090.23        500.000        2629.58     
  1087.72        500.000        2629.69     
  1085.21        500.000        2629.79     
  1082.71        500.000        2629.90     
  1080.20        500.000        2630.01     
  1077.69        500.000        2630.11     
  1075.19        500.000        2630.22     
  1072.68        500.000        2630.32     
  1070.18        500.000        2630.43     
  1067.67        500.000        2630.53     
  1065.16        500.000        2630.64     
  1062.66        500.000        2630.74     
  1060.15        500.000        2630.85     
  1057.64        500.000        2630.95     
  1055.14        500.000        2631.05     
  1052.63        500.000        2631.16     
  1050.13        500.000        2631.26     
  1047.62        500.000        2631.36     
  1045.11        500.000        2631.46     
  1042.61        500.000        2631.57     
  1040.10        500.000        2631.67     
  1037.59        500.000        2631.77     
  1035.09        500.000        2631.87     
  1032.58        500.000        2631.98     
  1030.08        500.000        2632.07     
  1027.57        500.000        2632.17     
  1025.06        500.000        2632.27     
  1022.56        500.000        2632.41     
  1020.05        500.000        2632.51     
  1017.54        500.000        2632.61     
  1015.04        500.000        2632.71     
  1012.53        500.000        2632.81     
  1010.03        500.000        2632.90     
  1007.52        500.000        2633.00     
  1005.01        500.000        2633.10     
  1002.51        500.000        2633.20     
  1000.00        500.000        2633.30     
