|6.6.6
Archiving\03_Data\eqfracLP/QFM_m4.25/LAR/LAR_6.tab                        
           1
T(K)    
  0.000000000000000E+000
  0.000000000000000E+000
           0
           3
T(K)           P(bar)         rho,kg/m3     
  1400.64        500.000        3519.80     
  1399.64        500.000        3143.12     
  1398.63        500.000        3131.43     
  1397.63        500.000        3135.79     
  1396.62        500.000        3138.20     
  1395.62        500.000        3137.06     
  1394.62        500.000        3138.20     
  1393.61        500.000        3139.32     
  1392.61        500.000        3140.36     
  1391.60        500.000        3141.49     
  1390.60        500.000        3142.84     
  1389.59        500.000        3143.73     
  1388.59        500.000        3144.87     
  1387.59        500.000        3145.89     
  1386.58        500.000        3147.18     
  1385.58        500.000        3148.37     
  1384.57        500.000        3149.39     
  1383.57        500.000        3150.49     
  1382.57        500.000        3151.37     
  1381.56        500.000        3152.68     
  1380.56        500.000        3153.98     
  1379.55        500.000        3155.22     
  1378.55        500.000        3156.33     
  1377.55        500.000        3157.58     
  1376.54        500.000        3158.40     
  1375.54        500.000        3159.78     
  1374.53        500.000        3160.24     
  1373.53        500.000        3162.08     
  1372.52        500.000        3163.19     
  1371.52        500.000        3164.38     
  1370.52        500.000        3165.85     
  1369.51        500.000        3166.79     
  1368.51        500.000        3168.10     
  1367.50        500.000        3169.05     
  1366.50        500.000        3171.47     
  1365.50        500.000        2688.33     
  1364.49        500.000        3176.88     
  1363.49        500.000        3173.83     
  1362.48        500.000        3175.00     
  1361.48        500.000        3176.13     
  1360.48        500.000        3177.36     
  1359.47        500.000        3178.63     
  1358.47        500.000        3179.69     
  1357.46        500.000        3180.74     
  1356.46        500.000        3181.95     
  1355.46        500.000        3183.21     
  1354.45        500.000        3184.35     
  1353.45        500.000        3185.45     
  1352.44        500.000        3187.14     
  1351.44        500.000        3191.62     
  1350.43        500.000        3188.14     
  1349.43        500.000        3189.94     
  1348.43        500.000        3191.43     
  1347.42        500.000        3192.28     
  1346.42        500.000        3193.72     
  1345.41        500.000        3194.53     
  1344.41        500.000        3196.21     
  1343.41        500.000        3197.08     
  1342.40        500.000        3197.87     
  1341.40        500.000        3199.17     
  1340.39        500.000        3200.21     
  1339.39        500.000        3201.17     
  1338.39        500.000        3202.53     
  1337.38        500.000        3206.56     
  1336.38        500.000        3201.22     
  1335.37        500.000        3205.94     
  1334.37        500.000        3206.34     
  1333.36        500.000        3207.01     
  1332.36        500.000        3209.49     
  1331.36        500.000        3209.75     
  1330.35        500.000        3211.03     
  1329.35        500.000        3211.54     
  1328.34        500.000        3212.67     
  1327.34        500.000        3214.22     
  1326.34        500.000        3214.61     
  1325.33        500.000        3215.15     
  1324.33        500.000        3216.66     
  1323.32        500.000        3217.65     
  1322.32        500.000        3218.29     
  1321.32        500.000        3219.56     
  1320.31        500.000        3220.22     
  1319.31        500.000        3221.19     
  1318.30        500.000        3222.01     
  1317.30        500.000        3222.94     
  1316.29        500.000        3221.56     
  1315.29        500.000        3201.90     
  1314.29        500.000        3238.65     
  1313.28        500.000        3234.28     
  1312.28        500.000        3226.89     
  1311.27        500.000        3227.64     
  1310.27        500.000        3228.88     
  1309.27        500.000        3228.59     
  1308.26        500.000        3229.67     
  1307.26        500.000        3230.51     
  1306.25        500.000        3230.95     
  1305.25        500.000        3231.71     
  1304.25        500.000        3232.39     
  1303.24        500.000        3232.75     
  1302.24        500.000        3235.68     
  1301.23        500.000        3231.83     
  1300.23        500.000        3234.58     
  1299.22        500.000        3235.07     
  1298.22        500.000        3235.58     
  1297.22        500.000        3234.30     
  1296.21        500.000        3237.20     
  1295.21        500.000        3238.22     
  1294.20        500.000        3237.10     
  1293.20        500.000        3237.46     
  1292.20        500.000        3237.94     
  1291.19        500.000        3239.75     
  1290.19        500.000        3236.86     
  1289.18        500.000        3238.71     
  1288.18        500.000        3238.82     
  1287.18        500.000        3239.10     
  1286.17        500.000        3239.26     
  1285.17        500.000        2817.23     
  1284.16        500.000        2777.33     
  1283.16        500.000        2779.38     
  1282.15        500.000        2781.52     
  1281.15        500.000        2783.38     
  1280.15        500.000        2785.61     
  1279.14        500.000        2787.54     
  1278.14        500.000        2789.45     
  1277.13        500.000        2791.31     
  1276.13        500.000        2793.05     
  1275.13        500.000        2794.67     
  1274.12        500.000        2796.28     
  1273.12        500.000        2798.13     
  1272.11        500.000        2799.40     
  1271.11        500.000        2801.02     
  1270.11        500.000        2802.24     
  1269.10        500.000        2804.02     
  1268.10        500.000        2805.29     
  1267.09        500.000        2813.61     
  1266.09        500.000        2820.57     
  1265.09        500.000        2821.43     
  1264.08        500.000        2822.49     
  1263.08        500.000        2823.07     
  1262.07        500.000        2823.76     
  1261.07        500.000        2824.07     
  1260.06        500.000        2824.71     
  1259.06        500.000        2825.12     
  1258.06        500.000        2826.71     
  1257.05        500.000        2826.58     
  1256.05        500.000        2826.97     
  1255.04        500.000        2827.95     
  1254.04        500.000        2827.98     
  1253.04        500.000        2828.23     
  1252.03        500.000        2828.46     
  1251.03        500.000        2829.39     
  1250.02        500.000        2829.60     
  1249.02        500.000        2829.84     
  1248.02        500.000        2830.39     
  1247.01        500.000        2830.45     
  1246.01        500.000        2830.94     
  1245.00        500.000        2832.29     
  1244.00        500.000        2830.83     
  1242.99        500.000        2831.56     
  1241.99        500.000        2831.30     
  1240.99        500.000        2831.38     
  1239.98        500.000        2831.77     
  1238.98        500.000        2832.33     
  1237.97        500.000        2831.16     
  1236.97        500.000        2831.93     
  1235.97        500.000        2832.40     
  1234.96        500.000        2832.11     
  1233.96        500.000        2831.83     
  1232.95        500.000        2832.31     
  1231.95        500.000        2832.83     
  1230.95        500.000        2831.28     
  1229.94        500.000        2832.50     
  1228.94        500.000        2831.97     
  1227.93        500.000        2832.14     
  1226.93        500.000        2831.81     
  1225.92        500.000        2832.24     
  1224.92        500.000        2832.02     
  1223.92        500.000        2831.30     
  1222.91        500.000        2831.26     
  1221.91        500.000        2830.57     
  1220.90        500.000        2830.90     
  1219.90        500.000        2831.12     
  1218.90        500.000        2830.38     
  1217.89        500.000        2830.37     
  1216.89        500.000        2829.98     
  1215.88        500.000        2811.36     
  1214.88        500.000        2907.87     
  1213.88        500.000        2640.40     
  1212.87        500.000        2831.56     
  1211.87        500.000        2645.50     
  1210.86        500.000        2717.37     
  1209.86        500.000        2733.03     
  1208.85        500.000        3984.98     
  1207.85        500.000        2822.51     
  1206.85        500.000        2804.83     
  1205.84        500.000        2801.80     
  1204.84        500.000        2882.53     
  1203.83        500.000        2812.93     
  1202.83        500.000        2877.28     
  1201.83        500.000        2654.24     
  1200.82        500.000        2843.85     
  1199.82        500.000        2944.74     
  1198.81        500.000        3091.62     
  1197.81        500.000        2888.83     
  1196.81        500.000        2623.30     
  1195.80        500.000        2652.33     
  1194.80        500.000        2646.03     
  1193.79        500.000        2661.15     
  1192.79        500.000        2641.80     
  1191.79        500.000        2634.14     
  1190.78        500.000        2630.35     
  1189.78        500.000        2626.78     
  1188.77        500.000        2626.82     
  1187.77        500.000        2626.82     
  1186.76        500.000        2626.86     
  1185.76        500.000        2626.93     
  1184.76        500.000        2626.95     
  1183.75        500.000        2627.03     
  1182.75        500.000        2627.07     
  1181.74        500.000        2627.12     
  1180.74        500.000        2627.12     
  1179.74        500.000        2627.16     
  1178.73        500.000        2627.21     
  1177.73        500.000        2627.31     
  1176.72        500.000        2627.32     
  1175.72        500.000        2627.33     
  1174.72        500.000        2627.38     
  1173.71        500.000        2627.45     
  1172.71        500.000        2627.50     
  1171.70        500.000        2627.52     
  1170.70        500.000        2627.60     
  1169.69        500.000        2627.64     
  1168.69        500.000        2627.64     
  1167.69        500.000        2627.69     
  1166.68        500.000        2627.73     
  1165.68        500.000        2627.81     
  1164.67        500.000        2627.84     
  1163.67        500.000        2627.90     
  1162.67        500.000        2627.93     
  1161.66        500.000        2627.96     
  1160.66        500.000        2628.02     
  1159.65        500.000        2628.07     
  1158.65        500.000        2628.11     
  1157.65        500.000        2628.15     
  1156.64        500.000        2628.17     
  1155.64        500.000        2628.24     
  1154.63        500.000        2628.26     
  1153.63        500.000        2628.33     
  1152.62        500.000        2628.35     
  1151.62        500.000        2628.42     
  1150.62        500.000        2628.46     
  1149.61        500.000        2628.50     
  1148.61        500.000        2628.54     
  1147.60        500.000        2628.59     
  1146.60        500.000        2628.64     
  1145.60        500.000        2628.68     
  1144.59        500.000        2628.72     
  1143.59        500.000        2628.77     
  1142.58        500.000        2628.81     
  1141.58        500.000        2628.85     
  1140.58        500.000        2628.89     
  1139.57        500.000        2628.93     
  1138.57        500.000        2628.97     
  1137.56        500.000        2629.02     
  1136.56        500.000        2629.06     
  1135.55        500.000        2629.10     
  1134.55        500.000        2629.14     
  1133.55        500.000        2629.19     
  1132.54        500.000        2629.23     
  1131.54        500.000        2629.27     
  1130.53        500.000        2629.31     
  1129.53        500.000        2629.37     
  1128.53        500.000        2629.40     
  1127.52        500.000        2629.46     
  1126.52        500.000        2629.50     
  1125.51        500.000        2629.54     
  1124.51        500.000        2629.58     
  1123.51        500.000        2629.60     
  1122.50        500.000        2629.65     
  1121.50        500.000        2629.69     
  1120.49        500.000        2629.76     
  1119.49        500.000        2629.77     
  1118.49        500.000        2629.82     
  1117.48        500.000        2629.88     
  1116.48        500.000        2629.93     
  1115.47        500.000        2629.97     
  1114.47        500.000        2630.01     
  1113.46        500.000        2630.04     
  1112.46        500.000        2630.10     
  1111.46        500.000        2630.13     
  1110.45        500.000        2630.19     
  1109.45        500.000        2630.20     
  1108.44        500.000        2630.25     
  1107.44        500.000        2630.29     
  1106.44        500.000        2630.33     
  1105.43        500.000        2630.38     
  1104.43        500.000        2630.42     
  1103.42        500.000        2630.46     
  1102.42        500.000        2630.50     
  1101.42        500.000        2630.55     
  1100.41        500.000        2630.59     
  1099.41        500.000        2630.63     
  1098.40        500.000        2630.68     
  1097.40        500.000        2630.72     
  1096.39        500.000        2630.76     
  1095.39        500.000        2630.80     
  1094.39        500.000        2630.85     
  1093.38        500.000        2630.89     
  1092.38        500.000        2630.93     
  1091.37        500.000        2630.98     
  1090.37        500.000        2631.02     
  1089.37        500.000        2631.06     
  1088.36        500.000        2631.10     
  1087.36        500.000        2631.14     
  1086.35        500.000        2631.18     
  1085.35        500.000        2631.23     
  1084.35        500.000        2631.27     
  1083.34        500.000        2631.31     
  1082.34        500.000        2631.35     
  1081.33        500.000        2631.40     
  1080.33        500.000        2631.44     
  1079.32        500.000        2631.48     
  1078.32        500.000        2631.52     
  1077.32        500.000        2631.56     
  1076.31        500.000        2631.61     
  1075.31        500.000        2631.65     
  1074.30        500.000        2631.69     
  1073.30        500.000        2631.73     
  1072.30        500.000        2631.78     
  1071.29        500.000        2631.82     
  1070.29        500.000        2631.86     
  1069.28        500.000        2631.90     
  1068.28        500.000        2631.95     
  1067.28        500.000        2631.99     
  1066.27        500.000        2632.03     
  1065.27        500.000        2632.07     
  1064.26        500.000        2632.12     
  1063.26        500.000        2632.16     
  1062.25        500.000        2632.20     
  1061.25        500.000        2632.24     
  1060.25        500.000        2632.28     
  1059.24        500.000        2632.33     
  1058.24        500.000        2632.37     
  1057.23        500.000        2632.41     
  1056.23        500.000        2632.45     
  1055.23        500.000        2632.50     
  1054.22        500.000        2632.54     
  1053.22        500.000        2632.58     
  1052.21        500.000        2632.63     
  1051.21        500.000        2630.75     
  1050.21        500.000        2630.79     
  1049.20        500.000        2630.82     
  1048.20        500.000        2630.85     
  1047.19        500.000        2630.89     
  1046.19        500.000        2630.92     
  1045.18        500.000        2630.95     
  1044.18        500.000        2630.98     
  1043.18        500.000        2631.01     
  1042.17        500.000        2631.05     
  1041.17        500.000        2631.01     
  1040.16        500.000        2631.04     
  1039.16        500.000        2631.06     
  1038.16        500.000        2631.08     
  1037.15        500.000        2631.11     
  1036.15        500.000        2631.13     
  1035.14        500.000        2631.13     
  1034.14        500.000        2631.17     
  1033.14        500.000        2631.18     
  1032.13        500.000        2631.20     
  1031.13        500.000        2631.21     
  1030.12        500.000        2631.22     
  1029.12        500.000        2631.24     
  1028.12        500.000        2631.25     
  1027.11        500.000        2631.27     
  1026.11        500.000        2631.29     
  1025.10        500.000        2631.31     
  1024.10        500.000        2631.33     
  1023.09        500.000        2631.35     
  1022.09        500.000        2631.37     
  1021.09        500.000        2631.39     
  1020.08        500.000        2631.41     
  1019.08        500.000        2631.43     
  1018.07        500.000        2631.45     
  1017.07        500.000        2631.47     
  1016.07        500.000        2631.50     
  1015.06        500.000        2631.52     
  1014.06        500.000        2631.58     
  1013.05        500.000        2631.61     
  1012.05        500.000        2631.64     
  1011.05        500.000        2631.67     
  1010.04        500.000        2631.67     
  1009.04        500.000        2631.67     
  1008.03        500.000        2631.69     
  1007.03        500.000        2631.72     
  1006.02        500.000        2631.75     
  1005.02        500.000        2631.77     
  1004.02        500.000        2631.80     
  1003.01        500.000        2631.83     
  1002.01        500.000        2631.86     
  1001.00        500.000        2631.88     
  1000.00        500.000        2631.91     
