|6.6.6
Archiving\03_Data\fracLP/QFM_m1/YM20/YM20_6.tab                         
           1
T(K)    
  0.000000000000000E+000
  0.000000000000000E+000
           0
           3
T(K)           P(bar)         rho,kg/m3     
  2000.00        500.000        5145.98     
  1997.49        500.000        5146.73     
  1994.99        500.000        5147.49     
  1992.48        500.000        5148.24     
  1989.97        500.000        5149.00     
  1987.47        500.000        5149.75     
  1984.96        500.000        5150.50     
  1982.46        500.000        5151.26     
  1979.95        500.000        5152.01     
  1977.44        500.000        5152.76     
  1974.94        500.000        5153.51     
  1972.43        500.000        5154.26     
  1969.92        500.000        5155.01     
  1967.42        500.000        5155.76     
  1964.91        500.000        5156.51     
  1962.41        500.000        5157.26     
  1959.90        500.000        5158.01     
  1957.39        500.000        5158.76     
  1954.89        500.000        5159.51     
  1952.38        500.000        5160.26     
  1949.87        500.000        5161.00     
  1947.37        500.000        5161.75     
  1944.86        500.000        5162.50     
  1942.36        500.000        5163.24     
  1939.85        500.000        5163.99     
  1937.34        500.000        3780.90     
  1934.84        500.000        2886.94     
  1932.33        500.000        2887.50     
  1929.82        500.000        2888.07     
  1927.32        500.000        2888.63     
  1924.81        500.000        2889.20     
  1922.31        500.000        2889.77     
  1919.80        500.000        2890.33     
  1917.29        500.000        2890.90     
  1914.79        500.000        2891.47     
  1912.28        500.000        2892.03     
  1909.77        500.000        2892.60     
  1907.27        500.000        2893.17     
  1904.76        500.000        2893.73     
  1902.26        500.000        2894.30     
  1899.75        500.000        2894.87     
  1897.24        500.000        2895.43     
  1894.74        500.000        2896.00     
  1892.23        500.000        2896.57     
  1889.72        500.000        2897.13     
  1887.22        500.000        2897.70     
  1884.71        500.000        2898.27     
  1882.21        500.000        2898.83     
  1879.70        500.000        3145.90     
  1877.19        500.000        3147.11     
  1874.69        500.000        3148.60     
  1872.18        500.000        3150.57     
  1869.67        500.000        3161.70     
  1867.17        500.000        3175.72     
  1864.66        500.000        3177.11     
  1862.16        500.000        3178.80     
  1859.65        500.000        3180.29     
  1857.14        500.000        3181.26     
  1854.64        500.000        3183.40     
  1852.13        500.000        3184.89     
  1849.62        500.000        3185.95     
  1847.12        500.000        3187.72     
  1844.61        500.000        3189.70     
  1842.11        500.000        3191.45     
  1839.60        500.000        3193.07     
  1837.09        500.000        3194.49     
  1834.59        500.000        3196.79     
  1832.08        500.000        3197.65     
  1829.57        500.000        3198.68     
  1827.07        500.000        3200.78     
  1824.56        500.000        3201.85     
  1822.06        500.000        3203.66     
  1819.55        500.000        3205.56     
  1817.04        500.000        3207.90     
  1814.54        500.000        3207.80     
  1812.03        500.000        3210.33     
  1809.52        500.000        3211.53     
  1807.02        500.000        3213.21     
  1804.51        500.000        3214.48     
  1802.01        500.000        3215.90     
  1799.50        500.000        3217.87     
  1796.99        500.000        3219.07     
  1794.49        500.000        3221.45     
  1791.98        500.000        3224.12     
  1789.47        500.000        3224.39     
  1786.97        500.000        3225.77     
  1784.46        500.000        3227.56     
  1781.95        500.000        3230.11     
  1779.45        500.000        3230.72     
  1776.94        500.000        3231.99     
  1774.44        500.000        3234.36     
  1771.93        500.000        3235.02     
  1769.42        500.000        3237.41     
  1766.92        500.000        3238.72     
  1764.41        500.000        3240.18     
  1761.90        500.000        3242.05     
  1759.40        500.000        3243.94     
  1756.89        500.000        3244.96     
  1754.39        500.000        3246.95     
  1751.88        500.000        3248.83     
  1749.37        500.000        3250.66     
  1746.87        500.000        3252.25     
  1744.36        500.000        3253.96     
  1741.85        500.000        3255.12     
  1739.35        500.000        3256.81     
  1736.84        500.000        3258.00     
  1734.34        500.000        3261.00     
  1731.83        500.000        3261.52     
  1729.32        500.000        3263.14     
  1726.82        500.000        3264.56     
  1724.31        500.000        3266.08     
  1721.80        500.000        3268.05     
  1719.30        500.000        3269.99     
  1716.79        500.000        3270.97     
  1714.29        500.000        3272.45     
  1711.78        500.000        3274.38     
  1709.27        500.000        3276.06     
  1706.77        500.000        3277.94     
  1704.26        500.000        3278.97     
  1701.75        500.000        3281.60     
  1699.25        500.000        3282.30     
  1696.74        500.000        3284.01     
  1694.24        500.000        3285.29     
  1691.73        500.000        3287.08     
  1689.22        500.000        3291.15     
  1686.72        500.000        3291.94     
  1684.21        500.000        3292.06     
  1681.70        500.000        3293.84     
  1679.20        500.000        3295.81     
  1676.69        500.000        3297.28     
  1674.19        500.000        3298.02     
  1671.68        500.000        3299.87     
  1669.17        500.000        3301.81     
  1666.67        500.000        3302.99     
  1664.16        500.000        3305.55     
  1661.65        500.000        3305.90     
  1659.15        500.000        3307.63     
  1656.64        500.000        3309.41     
  1654.14        500.000        3310.66     
  1651.63        500.000        3312.78     
  1649.12        500.000        3313.52     
  1646.62        500.000        3318.79     
  1644.11        500.000        3317.81     
  1641.60        500.000        3318.38     
  1639.10        500.000        3319.65     
  1636.59        500.000        3321.55     
  1634.09        500.000        3323.47     
  1631.58        500.000        3324.82     
  1629.07        500.000        3326.02     
  1626.57        500.000        3327.56     
  1624.06        500.000        3329.29     
  1621.55        500.000        3331.27     
  1619.05        500.000        3332.40     
  1616.54        500.000        3334.35     
  1614.04        500.000        3335.29     
  1611.53        500.000        3336.99     
  1609.02        500.000        3338.33     
  1606.52        500.000        3339.61     
  1604.01        500.000        3341.08     
  1601.50        500.000        3342.82     
  1599.00        500.000        3343.96     
  1596.49        500.000        3345.43     
  1593.98        500.000        3347.02     
  1591.48        500.000        3348.40     
  1588.97        500.000        3350.08     
  1586.47        500.000        3272.45     
  1583.96        500.000        3246.66     
  1581.45        500.000        3248.66     
  1578.95        500.000        3249.24     
  1576.44        500.000        3249.82     
  1573.93        500.000        3250.56     
  1571.43        500.000        3252.39     
  1568.92        500.000        3254.11     
  1566.42        500.000        3260.75     
  1563.91        500.000        3254.43     
  1561.40        500.000        3255.31     
  1558.90        500.000        3255.77     
  1556.39        500.000        3256.84     
  1553.88        500.000        3258.37     
  1551.38        500.000        3259.02     
  1548.87        500.000        3259.84     
  1546.37        500.000        3260.34     
  1543.86        500.000        3261.14     
  1541.35        500.000        3261.68     
  1538.85        500.000        3263.36     
  1536.34        500.000        3263.55     
  1533.83        500.000        3264.58     
  1531.33        500.000        3265.60     
  1528.82        500.000        3265.90     
  1526.32        500.000        3266.50     
  1523.81        500.000        3267.05     
  1521.30        500.000        3266.92     
  1518.80        500.000        3268.95     
  1516.29        500.000        3269.43     
  1513.78        500.000        3270.75     
  1511.28        500.000        3269.33     
  1508.77        500.000        3270.31     
  1506.27        500.000        3272.69     
  1503.76        500.000        3272.72     
  1501.25        500.000        3274.88     
  1498.75        500.000        3278.42     
  1496.24        500.000        3276.51     
  1493.73        500.000        3276.78     
  1491.23        500.000        3278.27     
  1488.72        500.000        3279.22     
  1486.22        500.000        3282.01     
  1483.71        500.000        3281.22     
  1481.20        500.000        3282.22     
  1478.70        500.000        3284.04     
  1476.19        500.000        3284.06     
  1473.68        500.000        3285.65     
  1471.18        500.000        3286.78     
  1468.67        500.000        3287.80     
  1466.17        500.000        3289.03     
  1463.66        500.000        3289.11     
  1461.15        500.000        3291.28     
  1458.65        500.000        3292.09     
  1456.14        500.000        3293.26     
  1453.63        500.000        3295.03     
  1451.13        500.000        3283.90     
  1448.62        500.000        3281.85     
  1446.12        500.000        3284.12     
  1443.61        500.000        3285.48     
  1441.10        500.000        3287.41     
  1438.60        500.000        3288.65     
  1436.09        500.000        3290.09     
  1433.58        500.000        3272.37     
  1431.08        500.000        3273.73     
  1428.57        500.000        3275.68     
  1426.07        500.000        3277.52     
  1423.56        500.000        3280.00     
  1421.05        500.000        3281.85     
  1418.55        500.000        3283.90     
  1416.04        500.000        3285.75     
  1413.53        500.000        3287.89     
  1411.03        500.000        3152.40     
  1408.52        500.000        3111.77     
  1406.02        500.000        3114.09     
  1403.51        500.000        3116.34     
  1401.00        500.000        3118.99     
  1398.50        500.000        3121.48     
  1395.99        500.000        3123.80     
  1393.48        500.000        3126.22     
  1390.98        500.000        3128.55     
  1388.47        500.000        3130.95     
  1385.96        500.000        3133.31     
  1383.46        500.000        3135.91     
  1380.95        500.000        3138.16     
  1378.45        500.000        3140.61     
  1375.94        500.000        3142.86     
  1373.43        500.000        3150.41     
  1370.93        500.000        3163.18     
  1368.42        500.000        3166.51     
  1365.91        500.000        3169.78     
  1363.41        500.000        3173.24     
  1360.90        500.000        3176.16     
  1358.40        500.000        3180.24     
  1355.89        500.000        3182.97     
  1353.38        500.000        3186.52     
  1350.88        500.000        3189.88     
  1348.37        500.000        3193.14     
  1345.86        500.000        3196.85     
  1343.36        500.000        3199.91     
  1340.85        500.000        3203.65     
  1338.35        500.000        3207.08     
  1335.84        500.000        3208.55     
  1333.33        500.000        3215.66     
  1330.83        500.000        3217.02     
  1328.32        500.000        3220.23     
  1325.81        500.000        3223.59     
  1323.31        500.000        3227.03     
  1320.80        500.000        3230.15     
  1318.30        500.000        3233.35     
  1315.79        500.000        3236.34     
  1313.28        500.000        3239.57     
  1310.78        500.000        3242.38     
  1308.27        500.000        3245.32     
  1305.76        500.000        3248.15     
  1303.26        500.000        3250.91     
  1300.75        500.000        3253.53     
  1298.25        500.000        3256.08     
  1295.74        500.000        3258.42     
  1293.23        500.000        3260.86     
  1290.73        500.000        3263.52     
  1288.22        500.000        3265.16     
  1285.71        500.000        3267.26     
  1283.21        500.000        3269.18     
  1280.70        500.000        3270.89     
  1278.20        500.000        2795.72     
  1275.69        500.000        2798.50     
  1273.18        500.000        2804.34     
  1270.68        500.000        2809.79     
  1268.17        500.000        2815.18     
  1265.66        500.000        2820.33     
  1263.16        500.000        2825.28     
  1260.65        500.000        2830.24     
  1258.15        500.000        2835.12     
  1255.64        500.000        2839.67     
  1253.13        500.000        2844.40     
  1250.63        500.000        2848.87     
  1248.12        500.000        2853.16     
  1245.61        500.000        2859.00     
  1243.11        500.000        2871.90     
  1240.60        500.000        2881.60     
  1238.10        500.000        2882.49     
  1235.59        500.000        2884.33     
  1233.08        500.000        2881.65     
  1230.58        500.000        2883.13     
  1228.07        500.000        2882.91     
  1225.56        500.000        2882.36     
  1223.06        500.000        2881.61     
  1220.55        500.000        2880.77     
  1218.05        500.000        2870.75     
  1215.54        500.000        2806.54     
  1213.03        500.000        3192.32     
  1210.53        500.000        2872.63     
  1208.02        500.000        2902.53     
  1205.51        500.000        2658.55     
  1203.01        500.000        2705.78     
  1200.50        500.000        2708.17     
  1197.99        500.000        2695.53     
  1195.49        500.000        2680.35     
  1192.98        500.000        2683.72     
  1190.48        500.000        2674.45     
  1187.97        500.000        2663.93     
  1185.46        500.000        2641.15     
  1182.96        500.000        2643.18     
  1180.45        500.000        2640.90     
  1177.94        500.000        2641.27     
  1175.44        500.000        2641.32     
  1172.93        500.000        2641.66     
  1170.43        500.000        2641.67     
  1167.92        500.000        2641.73     
  1165.41        500.000        2641.79     
  1162.91        500.000        2641.85     
  1160.40        500.000        2641.89     
  1157.89        500.000        2641.68     
  1155.39        500.000        2641.74     
  1152.88        500.000        2641.85     
  1150.38        500.000        2641.96     
  1147.87        500.000        2642.07     
  1145.36        500.000        2642.18     
  1142.86        500.000        2642.29     
  1140.35        500.000        2642.40     
  1137.84        500.000        2642.52     
  1135.34        500.000        2642.63     
  1132.83        500.000        2642.74     
  1130.33        500.000        2642.85     
  1127.82        500.000        2642.88     
  1125.31        500.000        2642.97     
  1122.81        500.000        2643.18     
  1120.30        500.000        2643.13     
  1117.79        500.000        2643.27     
  1115.29        500.000        2643.37     
  1112.78        500.000        2643.47     
  1110.28        500.000        2643.57     
  1107.77        500.000        2643.84     
  1105.26        500.000        2643.77     
  1102.76        500.000        2643.87     
  1100.25        500.000        2643.97     
  1097.74        500.000        2644.08     
  1095.24        500.000        2644.01     
  1092.73        500.000        2644.07     
  1090.23        500.000        2644.17     
  1087.72        500.000        2644.26     
  1085.21        500.000        2644.35     
  1082.71        500.000        2644.44     
  1080.20        500.000        2644.53     
  1077.69        500.000        2644.62     
  1075.19        500.000        2644.71     
  1072.68        500.000        2644.80     
  1070.18        500.000        2644.89     
  1067.67        500.000        2644.98     
  1065.16        500.000        2645.07     
  1062.66        500.000        2645.12     
  1060.15        500.000        2645.13     
  1057.64        500.000        2645.66     
  1055.14        500.000        2645.33     
  1052.63        500.000        2645.43     
  1050.13        500.000        2645.53     
  1047.62        500.000        2645.63     
  1045.11        500.000        2645.73     
  1042.61        500.000        2645.83     
  1040.10        500.000        2646.02     
  1037.59        500.000        2646.00     
  1035.09        500.000        2646.10     
  1032.58        500.000        2646.20     
  1030.08        500.000        2646.30     
  1027.57        500.000        2646.40     
  1025.06        500.000        2646.56     
  1022.56        500.000        2646.66     
  1020.05        500.000        2646.75     
  1017.54        500.000        2646.85     
  1015.04        500.000        2646.95     
  1012.53        500.000        2647.05     
  1010.03        500.000        2647.16     
  1007.52        500.000        2647.25     
  1005.01        500.000        2647.35     
  1002.51        500.000        2647.48     
  1000.00        500.000        2647.59     
