|6.6.6
Archiving\03_Data\fracLP/QFM_m3.5/TIS/TIS_6.tab                           
           1
T(K)    
  0.000000000000000E+000
  0.000000000000000E+000
           0
           3
T(K)           P(bar)         rho,kg/m3     
  2000.00        500.000        3584.12     
  1997.49        500.000        3584.50     
  1994.99        500.000        3584.87     
  1992.48        500.000        3585.25     
  1989.97        500.000        3585.62     
  1987.47        500.000        3586.00     
  1984.96        500.000        3586.37     
  1982.46        500.000        3586.75     
  1979.95        500.000        3587.12     
  1977.44        500.000        3587.50     
  1974.94        500.000        3587.87     
  1972.43        500.000        3588.25     
  1969.92        500.000        3588.62     
  1967.42        500.000        3589.00     
  1964.91        500.000        3589.37     
  1962.41        500.000        3589.75     
  1959.90        500.000        3590.12     
  1957.39        500.000        3590.49     
  1954.89        500.000        3590.87     
  1952.38        500.000        3591.24     
  1949.87        500.000        3591.61     
  1947.37        500.000        3591.99     
  1944.86        500.000        3592.36     
  1942.36        500.000        3592.73     
  1939.85        500.000        3593.11     
  1937.34        500.000        3593.48     
  1934.84        500.000        3593.85     
  1932.33        500.000        3594.22     
  1929.82        500.000        3594.60     
  1927.32        500.000        3594.97     
  1924.81        500.000        3595.34     
  1922.31        500.000        3595.71     
  1919.80        500.000        3596.08     
  1917.29        500.000        3596.46     
  1914.79        500.000        3596.83     
  1912.28        500.000        3597.20     
  1909.77        500.000        3597.57     
  1907.27        500.000        3597.94     
  1904.76        500.000        3598.31     
  1902.26        500.000        3598.68     
  1899.75        500.000        3599.05     
  1897.24        500.000        3599.42     
  1894.74        500.000        3599.79     
  1892.23        500.000        3600.17     
  1889.72        500.000        3600.54     
  1887.22        500.000        3600.91     
  1884.71        500.000        3601.28     
  1882.21        500.000        3601.65     
  1879.70        500.000        3602.02     
  1877.19        500.000        3602.39     
  1874.69        500.000        3602.75     
  1872.18        500.000        3603.12     
  1869.67        500.000        3603.49     
  1867.17        500.000        3603.86     
  1864.66        500.000        3604.23     
  1862.16        500.000        3604.60     
  1859.65        500.000        3604.97     
  1857.14        500.000        3605.34     
  1854.64        500.000        3605.71     
  1852.13        500.000        3606.07     
  1849.62        500.000        3606.44     
  1847.12        500.000        3606.81     
  1844.61        500.000        3607.18     
  1842.11        500.000        3607.55     
  1839.60        500.000        3607.91     
  1837.09        500.000        3608.28     
  1834.59        500.000        3608.65     
  1832.08        500.000        3609.02     
  1829.57        500.000        3609.38     
  1827.07        500.000        3609.75     
  1824.56        500.000        3610.12     
  1822.06        500.000        3610.49     
  1819.55        500.000        3610.85     
  1817.04        500.000        3611.22     
  1814.54        500.000        3611.59     
  1812.03        500.000        3611.95     
  1809.52        500.000        3612.32     
  1807.02        500.000        3612.68     
  1804.51        500.000        3613.05     
  1802.01        500.000        3613.42     
  1799.50        500.000        3613.78     
  1796.99        500.000        3614.15     
  1794.49        500.000        3614.51     
  1791.98        500.000        3614.88     
  1789.47        500.000        3615.24     
  1786.97        500.000        3615.61     
  1784.46        500.000        3615.97     
  1781.95        500.000        3616.34     
  1779.45        500.000        3616.70     
  1776.94        500.000        3617.07     
  1774.44        500.000        3617.43     
  1771.93        500.000        3617.80     
  1769.42        500.000        3618.16     
  1766.92        500.000        3618.53     
  1764.41        500.000        3618.89     
  1761.90        500.000        3619.25     
  1759.40        500.000        3619.62     
  1756.89        500.000        3619.98     
  1754.39        500.000        3620.34     
  1751.88        500.000        3620.71     
  1749.37        500.000        3621.07     
  1746.87        500.000        3621.43     
  1744.36        500.000        3621.80     
  1741.85        500.000        3622.16     
  1739.35        500.000        3622.52     
  1736.84        500.000        3622.89     
  1734.34        500.000        3623.25     
  1731.83        500.000        3623.61     
  1729.32        500.000        3623.97     
  1726.82        500.000        3624.33     
  1724.31        500.000        3624.70     
  1721.80        500.000        3625.06     
  1719.30        500.000        3625.42     
  1716.79        500.000        3625.78     
  1714.29        500.000        3626.14     
  1711.78        500.000        3626.51     
  1709.27        500.000        3626.87     
  1706.77        500.000        3627.23     
  1704.26        500.000        3627.59     
  1701.75        500.000        3627.95     
  1699.25        500.000        3628.31     
  1696.74        500.000        3628.67     
  1694.24        500.000        3629.03     
  1691.73        500.000        3629.39     
  1689.22        500.000        3629.75     
  1686.72        500.000        3630.11     
  1684.21        500.000        3630.47     
  1681.70        500.000        3630.83     
  1679.20        500.000        3631.19     
  1676.69        500.000        3631.55     
  1674.19        500.000        3631.91     
  1671.68        500.000        3634.44     
  1669.17        500.000        3641.49     
  1666.67        500.000        3641.75     
  1664.16        500.000        3642.04     
  1661.65        500.000        3642.33     
  1659.15        500.000        3642.64     
  1656.64        500.000        3642.88     
  1654.14        500.000        3550.18     
  1651.63        500.000        4506.66     
  1649.12        500.000        3434.65     
  1646.62        500.000        3400.73     
  1644.11        500.000        3403.39     
  1641.60        500.000        3404.33     
  1639.10        500.000        3405.79     
  1636.59        500.000        3407.85     
  1634.09        500.000        3411.25     
  1631.58        500.000        3413.98     
  1629.07        500.000        3411.03     
  1626.57        500.000        3402.04     
  1624.06        500.000        3420.15     
  1621.55        500.000        3422.51     
  1619.05        500.000        3424.15     
  1616.54        500.000        3425.79     
  1614.04        500.000        3429.30     
  1611.53        500.000        3431.82     
  1609.02        500.000        3433.37     
  1606.52        500.000        3435.67     
  1604.01        500.000        3437.24     
  1601.50        500.000        3439.64     
  1599.00        500.000        3441.84     
  1596.49        500.000        3443.86     
  1593.98        500.000        3445.71     
  1591.48        500.000        3448.82     
  1588.97        500.000        3450.03     
  1586.47        500.000        3452.65     
  1583.96        500.000        3453.82     
  1581.45        500.000        3457.04     
  1578.95        500.000        3459.08     
  1576.44        500.000        3461.39     
  1573.93        500.000        3462.05     
  1571.43        500.000        3465.58     
  1568.92        500.000        3467.48     
  1566.42        500.000        3469.17     
  1563.91        500.000        3471.15     
  1561.40        500.000        3473.02     
  1558.90        500.000        3475.36     
  1556.39        500.000        3478.57     
  1553.88        500.000        3479.99     
  1551.38        500.000        3481.98     
  1548.87        500.000        3484.50     
  1546.37        500.000        3485.54     
  1543.86        500.000        3488.35     
  1541.35        500.000        3490.22     
  1538.85        500.000        3492.97     
  1536.34        500.000        3492.55     
  1533.83        500.000        3495.41     
  1531.33        500.000        3498.32     
  1528.82        500.000        3500.80     
  1526.32        500.000        3503.60     
  1523.81        500.000        3505.11     
  1521.30        500.000        3506.53     
  1518.80        500.000        3509.13     
  1516.29        500.000        3511.12     
  1513.78        500.000        3513.04     
  1511.28        500.000        3515.01     
  1508.77        500.000        3517.64     
  1506.27        500.000        3521.53     
  1503.76        500.000        3521.41     
  1501.25        500.000        3394.62     
  1498.75        500.000        3323.71     
  1496.24        500.000        3324.75     
  1493.73        500.000        3325.56     
  1491.23        500.000        3327.95     
  1488.72        500.000        3322.51     
  1486.22        500.000        3313.94     
  1483.71        500.000        3315.98     
  1481.20        500.000        3317.17     
  1478.70        500.000        3319.12     
  1476.19        500.000        3319.97     
  1473.68        500.000        3328.27     
  1471.18        500.000        3328.97     
  1468.67        500.000        3306.72     
  1466.17        500.000        3304.04     
  1463.66        500.000        3306.62     
  1461.15        500.000        3308.95     
  1458.65        500.000        3311.29     
  1456.14        500.000        3314.05     
  1453.63        500.000        3316.15     
  1451.13        500.000        3318.60     
  1448.62        500.000        3321.00     
  1446.12        500.000        3323.44     
  1443.61        500.000        3325.95     
  1441.10        500.000        3328.16     
  1438.60        500.000        3330.85     
  1436.09        500.000        3333.58     
  1433.58        500.000        3336.07     
  1431.08        500.000        3338.38     
  1428.57        500.000        3340.88     
  1426.07        500.000        3343.63     
  1423.56        500.000        3346.13     
  1421.05        500.000        3348.74     
  1418.55        500.000        3351.64     
  1416.04        500.000        3354.31     
  1413.53        500.000        3356.95     
  1411.03        500.000        3359.66     
  1408.52        500.000        3362.40     
  1406.02        500.000        3269.47     
  1403.51        500.000        3167.18     
  1401.00        500.000        3170.80     
  1398.50        500.000        3174.36     
  1395.99        500.000        3177.92     
  1393.48        500.000        3181.65     
  1390.98        500.000        3185.25     
  1388.47        500.000        3188.41     
  1385.96        500.000        3192.22     
  1383.46        500.000        3195.93     
  1380.95        500.000        3199.52     
  1378.45        500.000        3203.45     
  1375.94        500.000        3207.04     
  1373.43        500.000        3211.00     
  1370.93        500.000        3214.66     
  1368.42        500.000        3217.90     
  1365.91        500.000        3241.15     
  1363.41        500.000        3258.70     
  1360.90        500.000        3262.06     
  1358.40        500.000        3266.46     
  1355.89        500.000        3271.14     
  1353.38        500.000        3273.80     
  1350.88        500.000        3277.55     
  1348.37        500.000        3281.56     
  1345.86        500.000        3285.93     
  1343.36        500.000        3289.25     
  1340.85        500.000        3292.25     
  1338.35        500.000        3295.49     
  1335.84        500.000        3299.03     
  1333.33        500.000        3302.20     
  1330.83        500.000        3305.47     
  1328.32        500.000        3308.21     
  1325.81        500.000        3329.87     
  1323.31        500.000        3353.24     
  1320.80        500.000        3356.16     
  1318.30        500.000        3358.44     
  1315.79        500.000        3360.22     
  1313.28        500.000        3362.38     
  1310.78        500.000        3365.56     
  1308.27        500.000        3367.53     
  1305.76        500.000        3369.44     
  1303.26        500.000        3371.05     
  1300.75        500.000        3373.15     
  1298.25        500.000        3348.12     
  1295.74        500.000        3404.74     
  1293.23        500.000        3378.20     
  1290.73        500.000        3379.92     
  1288.22        500.000        3381.08     
  1285.71        500.000        3382.37     
  1283.21        500.000        3383.93     
  1280.70        500.000        3384.65     
  1278.20        500.000        3385.51     
  1275.69        500.000        3386.46     
  1273.18        500.000        3387.74     
  1270.68        500.000        3388.43     
  1268.17        500.000        3389.23     
  1265.66        500.000        3389.85     
  1263.16        500.000        2898.85     
  1260.65        500.000        2871.25     
  1258.15        500.000        2873.74     
  1255.64        500.000        2875.72     
  1253.13        500.000        2877.24     
  1250.63        500.000        2878.93     
  1248.12        500.000        2879.67     
  1245.61        500.000        2880.59     
  1243.11        500.000        2881.32     
  1240.60        500.000        2881.78     
  1238.10        500.000        2881.84     
  1235.59        500.000        2881.88     
  1233.08        500.000        2881.69     
  1230.58        500.000        2881.48     
  1228.07        500.000        2881.44     
  1225.56        500.000        2881.37     
  1223.06        500.000        2880.44     
  1220.55        500.000        2880.02     
  1218.05        500.000        2700.71     
  1215.54        500.000        2691.20     
  1213.03        500.000        2689.78     
  1210.53        500.000        2689.15     
  1208.02        500.000        2686.40     
  1205.51        500.000        2676.79     
  1203.01        500.000        2686.20     
  1200.50        500.000        2668.47     
  1197.99        500.000        2722.80     
  1195.49        500.000        2657.04     
  1192.98        500.000        3446.82     
  1190.48        500.000        2634.83     
  1187.97        500.000        2536.29     
  1185.46        500.000        2536.29     
  1182.96        500.000        2536.29     
  1180.45        500.000        2536.29     
  1177.94        500.000        2536.29     
  1175.44        500.000        2536.29     
  1172.93        500.000        2536.29     
  1170.43        500.000        2536.29     
  1167.92        500.000        2536.29     
  1165.41        500.000        2536.29     
  1162.91        500.000        2536.29     
  1160.40        500.000        2536.29     
  1157.89        500.000        2536.29     
  1155.39        500.000        2536.29     
  1152.88        500.000        2536.29     
  1150.38        500.000        2536.29     
  1147.87        500.000        2536.29     
  1145.36        500.000        2536.29     
  1142.86        500.000        2536.29     
  1140.35        500.000        2536.29     
  1137.84        500.000        2536.29     
  1135.34        500.000        2536.29     
  1132.83        500.000        2536.29     
  1130.33        500.000        2536.29     
  1127.82        500.000        2536.29     
  1125.31        500.000        2536.29     
  1122.81        500.000        2536.29     
  1120.30        500.000        2536.29     
  1117.79        500.000        2536.29     
  1115.29        500.000        2536.29     
  1112.78        500.000        2536.29     
  1110.28        500.000        2536.29     
  1107.77        500.000        2536.29     
  1105.26        500.000        2536.29     
  1102.76        500.000        2536.29     
  1100.25        500.000        2536.29     
  1097.74        500.000        2536.29     
  1095.24        500.000        2536.29     
  1092.73        500.000        2536.29     
  1090.23        500.000        2536.29     
  1087.72        500.000        2536.29     
  1085.21        500.000        2536.29     
  1082.71        500.000        2536.29     
  1080.20        500.000        2536.29     
  1077.69        500.000        2536.29     
  1075.19        500.000        2536.29     
  1072.68        500.000        2536.29     
  1070.18        500.000        2536.29     
  1067.67        500.000        2536.29     
  1065.16        500.000        2536.29     
  1062.66        500.000        2536.29     
  1060.15        500.000        2536.29     
  1057.64        500.000        2536.29     
  1055.14        500.000        2536.29     
  1052.63        500.000        2536.29     
  1050.13        500.000        2536.29     
  1047.62        500.000        2536.29     
  1045.11        500.000        2536.29     
  1042.61        500.000        2536.29     
  1040.10        500.000        2536.29     
  1037.59        500.000        2536.29     
  1035.09        500.000        2536.29     
  1032.58        500.000        2536.29     
  1030.08        500.000        2536.29     
  1027.57        500.000        2536.29     
  1025.06        500.000        2536.29     
  1022.56        500.000        2536.29     
  1020.05        500.000        2536.29     
  1017.54        500.000        2536.29     
  1015.04        500.000        2536.29     
  1012.53        500.000        2536.29     
  1010.03        500.000        2536.29     
  1007.52        500.000        2536.29     
  1005.01        500.000        2536.29     
  1002.51        500.000        2536.29     
  1000.00        500.000        2536.29     
