|6.6.6
Archiving\03_Data\eqfracLP/QFM_m2.75/TIS/TIS_6.tab                        
           1
T(K)    
  0.000000000000000E+000
  0.000000000000000E+000
           0
           3
T(K)           P(bar)         rho,kg/m3     
  1426.28        500.000        3309.64     
  1425.21        500.000        3310.38     
  1424.14        500.000        3311.58     
  1423.07        500.000        3312.46     
  1422.01        500.000        3313.72     
  1420.94        500.000        3314.61     
  1419.87        500.000        3315.69     
  1418.80        500.000        3316.60     
  1417.73        500.000        3319.07     
  1416.66        500.000        3199.90     
  1415.60        500.000        3131.67     
  1414.53        500.000        3133.21     
  1413.46        500.000        3134.28     
  1412.39        500.000        3135.49     
  1411.32        500.000        3136.95     
  1410.25        500.000        3138.26     
  1409.19        500.000        3140.71     
  1408.12        500.000        3148.57     
  1407.05        500.000        3150.02     
  1405.98        500.000        3151.55     
  1404.91        500.000        3153.02     
  1403.84        500.000        3154.52     
  1402.78        500.000        3156.07     
  1401.71        500.000        3157.66     
  1400.64        500.000        3159.23     
  1399.57        500.000        3160.55     
  1398.50        500.000        3162.22     
  1397.43        500.000        3163.55     
  1396.37        500.000        3165.14     
  1395.30        500.000        3167.57     
  1394.23        500.000        3168.47     
  1393.16        500.000        3170.32     
  1392.09        500.000        3172.06     
  1391.02        500.000        3173.18     
  1389.96        500.000        3174.90     
  1388.89        500.000        3175.66     
  1387.82        500.000        3179.10     
  1386.75        500.000        3179.97     
  1385.68        500.000        3181.63     
  1384.61        500.000        3183.08     
  1383.55        500.000        3183.60     
  1382.48        500.000        3186.92     
  1381.41        500.000        3187.82     
  1380.34        500.000        3189.50     
  1379.27        500.000        3191.36     
  1378.20        500.000        3192.80     
  1377.13        500.000        3194.89     
  1376.07        500.000        3196.19     
  1375.00        500.000        3197.97     
  1373.93        500.000        3199.46     
  1372.86        500.000        3201.14     
  1371.79        500.000        3202.56     
  1370.72        500.000        3204.34     
  1369.66        500.000        3206.01     
  1368.59        500.000        3207.67     
  1367.52        500.000        3209.44     
  1366.45        500.000        3210.91     
  1365.38        500.000        3214.39     
  1364.31        500.000        3213.01     
  1363.25        500.000        3216.63     
  1362.18        500.000        3217.79     
  1361.11        500.000        3219.21     
  1360.04        500.000        3220.79     
  1358.97        500.000        3222.48     
  1357.90        500.000        3224.14     
  1356.84        500.000        3225.79     
  1355.77        500.000        3227.66     
  1354.70        500.000        3229.12     
  1353.63        500.000        3230.87     
  1352.56        500.000        3227.18     
  1351.49        500.000        3236.81     
  1350.43        500.000        3235.47     
  1349.36        500.000        3236.93     
  1348.29        500.000        3238.55     
  1347.22        500.000        3240.04     
  1346.15        500.000        3241.87     
  1345.08        500.000        3243.29     
  1344.02        500.000        3243.98     
  1342.95        500.000        3246.70     
  1341.88        500.000        3247.73     
  1340.81        500.000        3249.12     
  1339.74        500.000        3250.68     
  1338.67        500.000        3252.03     
  1337.61        500.000        3253.52     
  1336.54        500.000        3255.02     
  1335.47        500.000        3255.87     
  1334.40        500.000        3257.92     
  1333.33        500.000        3259.13     
  1332.26        500.000        3260.25     
  1331.19        500.000        3262.99     
  1330.13        500.000        3263.28     
  1329.06        500.000        3264.46     
  1327.99        500.000        3265.61     
  1326.92        500.000        3266.84     
  1325.85        500.000        3268.39     
  1324.78        500.000        3269.48     
  1323.72        500.000        3270.77     
  1322.65        500.000        3271.81     
  1321.58        500.000        3273.18     
  1320.51        500.000        3277.05     
  1319.44        500.000        3258.41     
  1318.37        500.000        3269.67     
  1317.31        500.000        3278.58     
  1316.24        500.000        3272.93     
  1315.17        500.000        3280.82     
  1314.10        500.000        3281.94     
  1313.03        500.000        3279.91     
  1311.96        500.000        3283.86     
  1310.90        500.000        3284.69     
  1309.83        500.000        3277.40     
  1308.76        500.000        3288.39     
  1307.69        500.000        3288.11     
  1306.62        500.000        3288.88     
  1305.55        500.000        3289.87     
  1304.49        500.000        3290.81     
  1303.42        500.000        3290.80     
  1302.35        500.000        3291.83     
  1301.28        500.000        3292.49     
  1300.21        500.000        3293.42     
  1299.14        500.000        3294.23     
  1298.08        500.000        3293.10     
  1297.01        500.000        3293.54     
  1295.94        500.000        3291.78     
  1294.87        500.000        3292.40     
  1293.80        500.000        3292.46     
  1292.73        500.000        3292.45     
  1291.67        500.000        3292.94     
  1290.60        500.000        3293.11     
  1289.53        500.000        3293.13     
  1288.46        500.000        3293.40     
  1287.39        500.000        3293.11     
  1286.32        500.000        3293.17     
  1285.26        500.000        3293.25     
  1284.19        500.000        3292.93     
  1283.12        500.000        3292.86     
  1282.05        500.000        3292.50     
  1280.98        500.000        3292.28     
  1279.91        500.000        3291.91     
  1278.84        500.000        3300.22     
  1277.78        500.000        3293.09     
  1276.71        500.000        3334.76     
  1275.64        500.000        2856.47     
  1274.57        500.000        2837.13     
  1273.50        500.000        2839.18     
  1272.43        500.000        2841.10     
  1271.37        500.000        2842.97     
  1270.30        500.000        2845.07     
  1269.23        500.000        2846.83     
  1268.16        500.000        2848.56     
  1267.09        500.000        2850.28     
  1266.02        500.000        2851.84     
  1264.96        500.000        2853.52     
  1263.89        500.000        2854.94     
  1262.82        500.000        2856.42     
  1261.75        500.000        2857.69     
  1260.68        500.000        2858.97     
  1259.61        500.000        2860.47     
  1258.55        500.000        2861.41     
  1257.48        500.000        2862.48     
  1256.41        500.000        2864.10     
  1255.34        500.000        2864.62     
  1254.27        500.000        2865.18     
  1253.20        500.000        2866.50     
  1252.14        500.000        2867.41     
  1251.07        500.000        2868.40     
  1250.00        500.000        2868.55     
  1248.93        500.000        2869.60     
  1247.86        500.000        2870.33     
  1246.79        500.000        2870.72     
  1245.73        500.000        2870.95     
  1244.66        500.000        2872.15     
  1243.59        500.000        2871.11     
  1242.52        500.000        2873.36     
  1241.45        500.000        2873.87     
  1240.38        500.000        2873.81     
  1239.32        500.000        2873.93     
  1238.25        500.000        2873.71     
  1237.18        500.000        2875.21     
  1236.11        500.000        2875.45     
  1235.04        500.000        2875.25     
  1233.97        500.000        2875.63     
  1232.90        500.000        2875.44     
  1231.84        500.000        2875.75     
  1230.77        500.000        2875.54     
  1229.70        500.000        2876.47     
  1228.63        500.000        2876.16     
  1227.56        500.000        2876.82     
  1226.49        500.000        2877.09     
  1225.43        500.000        2876.78     
  1224.36        500.000        2877.82     
  1223.29        500.000        2875.78     
  1222.22        500.000        2877.91     
  1221.15        500.000        2877.26     
  1220.08        500.000        2876.65     
  1219.02        500.000        2875.71     
  1217.95        500.000        2877.44     
  1216.88        500.000        2875.91     
  1215.81        500.000        2736.09     
  1214.74        500.000        2689.04     
  1213.67        500.000        2690.52     
  1212.61        500.000        2684.91     
  1211.54        500.000        2672.15     
  1210.47        500.000        2708.07     
  1209.40        500.000        2680.68     
  1208.33        500.000        2680.10     
  1207.26        500.000        2677.71     
  1206.20        500.000        2680.47     
  1205.13        500.000        2415.68     
  1204.06        500.000        2415.75     
  1202.99        500.000        2415.83     
  1201.92        500.000        2415.90     
  1200.85        500.000        2415.97     
  1199.79        500.000        2416.04     
  1198.72        500.000        3220.65     
  1197.65        500.000        2575.77     
  1196.58        500.000        2416.25     
  1195.51        500.000        2416.33     
  1194.44        500.000        2416.40     
  1193.38        500.000        2416.47     
  1192.31        500.000        2416.54     
  1191.24        500.000        2678.11     
  1190.17        500.000        2650.74     
  1189.10        500.000        2630.52     
  1188.03        500.000        2630.57     
  1186.96        500.000        2630.56     
  1185.90        500.000        2630.60     
  1184.83        500.000        2630.71     
  1183.76        500.000        2630.70     
  1182.69        500.000        2630.75     
  1181.62        500.000        2630.80     
  1180.55        500.000        2630.90     
  1179.49        500.000        2630.92     
  1178.42        500.000        2630.97     
  1177.35        500.000        2631.00     
  1176.28        500.000        2631.05     
  1175.21        500.000        2631.09     
  1174.14        500.000        2631.14     
  1173.08        500.000        2631.19     
  1172.01        500.000        2631.27     
  1170.94        500.000        2631.70     
  1169.87        500.000        2631.48     
  1168.80        500.000        2631.53     
  1167.73        500.000        2631.57     
  1166.67        500.000        2631.50     
  1165.60        500.000        2631.54     
  1164.53        500.000        2631.59     
  1163.46        500.000        2630.72     
  1162.39        500.000        2631.68     
  1161.32        500.000        2631.72     
  1160.26        500.000        2631.77     
  1159.19        500.000        2631.82     
  1158.12        500.000        2631.87     
  1157.05        500.000        2631.93     
  1155.98        500.000        2630.66     
  1154.91        500.000        2632.01     
  1153.85        500.000        2632.06     
  1152.78        500.000        2632.11     
  1151.71        500.000        2632.14     
  1150.64        500.000        2632.13     
  1149.57        500.000        2632.11     
  1148.50        500.000        2632.22     
  1147.44        500.000        2632.34     
  1146.37        500.000        2632.25     
  1145.30        500.000        2632.36     
  1144.23        500.000        2632.37     
  1143.16        500.000        2632.50     
  1142.09        500.000        2632.47     
  1141.02        500.000        2632.56     
  1139.96        500.000        2632.62     
  1138.89        500.000        2632.72     
  1137.82        500.000        2630.98     
  1136.75        500.000        2631.05     
  1135.68        500.000        2631.07     
  1134.61        500.000        2632.87     
  1133.55        500.000        2632.92     
  1132.48        500.000        2632.97     
  1131.41        500.000        2633.02     
  1130.34        500.000        2631.29     
  1129.27        500.000        2633.11     
  1128.20        500.000        2631.37     
  1127.14        500.000        2631.41     
  1126.07        500.000        2633.25     
  1125.00        500.000        2632.96     
  1123.93        500.000        2632.87     
  1122.86        500.000        2632.75     
  1121.79        500.000        2632.60     
  1120.73        500.000        2633.48     
  1119.66        500.000        2632.14     
  1118.59        500.000        2631.90     
  1117.52        500.000        2631.72     
  1116.45        500.000        2631.86     
  1115.38        500.000        2633.71     
  1114.32        500.000        2633.76     
  1113.25        500.000        2633.82     
  1112.18        500.000        2631.25     
  1111.11        500.000        2631.18     
  1110.04        500.000        2631.24     
  1108.97        500.000        2631.17     
  1107.91        500.000        2631.23     
  1106.84        500.000        2632.28     
  1105.77        500.000        2632.33     
  1104.70        500.000        2634.15     
  1103.63        500.000        2634.07     
  1102.56        500.000        2633.96     
  1101.50        500.000        2632.22     
  1100.43        500.000        2631.76     
  1099.36        500.000        2631.97     
  1098.29        500.000        2631.95     
  1097.22        500.000        2631.69     
  1096.15        500.000        2631.73     
  1095.09        500.000        2632.79     
  1094.02        500.000        2631.41     
  1092.95        500.000        2631.80     
  1091.88        500.000        2631.45     
  1090.81        500.000        2632.98     
  1089.74        500.000        2633.02     
  1088.67        500.000        2633.07     
  1087.61        500.000        2633.12     
  1086.54        500.000        2633.16     
  1085.47        500.000        2633.21     
  1084.40        500.000        2633.25     
  1083.33        500.000        2633.30     
  1082.26        500.000        2633.35     
  1081.20        500.000        2633.39     
  1080.13        500.000        2633.44     
  1079.06        500.000        2633.49     
  1077.99        500.000        2633.53     
  1076.92        500.000        2633.58     
  1075.85        500.000        2631.70     
  1074.79        500.000        2631.94     
  1073.72        500.000        2631.86     
  1072.65        500.000        2631.89     
  1071.58        500.000        2632.14     
  1070.51        500.000        2631.83     
  1069.44        500.000        2631.87     
  1068.38        500.000        2631.89     
  1067.31        500.000        2631.94     
  1066.24        500.000        2631.96     
  1065.17        500.000        2631.99     
  1064.10        500.000        2632.01     
  1063.03        500.000        2632.36     
  1061.97        500.000        2632.39     
  1060.90        500.000        2632.42     
  1059.83        500.000        2632.44     
  1058.76        500.000        2632.47     
  1057.69        500.000        2632.25     
  1056.62        500.000        2632.28     
  1055.56        500.000        2632.56     
  1054.49        500.000        2632.36     
  1053.42        500.000        2632.39     
  1052.35        500.000        2632.41     
  1051.28        500.000        2634.34     
  1050.21        500.000        2632.48     
  1049.15        500.000        2632.75     
  1048.08        500.000        2632.54     
  1047.01        500.000        2632.59     
  1045.94        500.000        2632.58     
  1044.87        500.000        2632.68     
  1043.80        500.000        2632.72     
  1042.73        500.000        2632.75     
  1041.67        500.000        2632.97     
  1040.60        500.000        2632.73     
  1039.53        500.000        2632.77     
  1038.46        500.000        2632.97     
  1037.39        500.000        2632.87     
  1036.32        500.000        2632.95     
  1035.26        500.000        2632.99     
  1034.19        500.000        2633.21     
  1033.12        500.000        2632.24     
  1032.05        500.000        2633.28     
  1030.98        500.000        2633.10     
  1029.91        500.000        2633.14     
  1028.85        500.000        2633.17     
  1027.78        500.000        2633.19     
  1026.71        500.000        2633.25     
  1025.64        500.000        2633.29     
  1024.57        500.000        2633.33     
  1023.50        500.000        2633.36     
  1022.44        500.000        2633.40     
  1021.37        500.000        2633.44     
  1020.30        500.000        2633.48     
  1019.23        500.000        2633.51     
  1018.16        500.000        2633.55     
  1017.09        500.000        2633.59     
  1016.03        500.000        2633.66     
  1014.96        500.000        2633.64     
  1013.89        500.000        2633.70     
  1012.82        500.000        2633.74     
  1011.75        500.000        2633.78     
  1010.68        500.000        2633.81     
  1009.62        500.000        2633.85     
  1008.55        500.000        2634.06     
  1007.48        500.000        2634.09     
  1006.41        500.000        2634.12     
  1005.34        500.000        2634.16     
  1004.27        500.000        2634.21     
  1003.21        500.000        2634.06     
  1002.14        500.000        2634.10     
  1001.07        500.000        2634.13     
