|6.6.6
Archiving\03_Data\DfracLP/QFM_m2.75/K22/K22_6.tab                     
           1
T(K)    
  0.000000000000000E+000
  0.000000000000000E+000
           0
           3
T(K)           P(bar)         rho,kg/m3     
  2000.00        500.000        8099.88     
  1997.49        500.000        8101.32     
  1994.99        500.000        8102.75     
  1992.48        500.000        8104.18     
  1989.97        500.000        8105.61     
  1987.47        500.000        8107.04     
  1984.96        500.000        8108.47     
  1982.46        500.000        8109.90     
  1979.95        500.000        8111.32     
  1977.44        500.000        8112.75     
  1974.94        500.000        8114.18     
  1972.43        500.000        8115.60     
  1969.92        500.000        8117.02     
  1967.42        500.000        8118.44     
  1964.91        500.000        8119.87     
  1962.41        500.000        8121.29     
  1959.90        500.000        8122.71     
  1957.39        500.000        8124.12     
  1954.89        500.000        8125.54     
  1952.38        500.000        8126.96     
  1949.87        500.000        3546.87     
  1947.37        500.000        2902.59     
  1944.86        500.000        2903.18     
  1942.36        500.000        3119.83     
  1939.85        500.000        3121.36     
  1937.34        500.000        3122.49     
  1934.84        500.000        3124.05     
  1932.33        500.000        3125.61     
  1929.82        500.000        3127.14     
  1927.32        500.000        3128.44     
  1924.81        500.000        3129.78     
  1922.31        500.000        3131.30     
  1919.80        500.000        3132.61     
  1917.29        500.000        3134.87     
  1914.79        500.000        3134.97     
  1912.28        500.000        3136.72     
  1909.77        500.000        3138.58     
  1907.27        500.000        3139.50     
  1904.76        500.000        3141.45     
  1902.26        500.000        3142.52     
  1899.75        500.000        3144.16     
  1897.24        500.000        3145.62     
  1894.74        500.000        3161.88     
  1892.23        500.000        3171.46     
  1889.72        500.000        3172.54     
  1887.22        500.000        3174.97     
  1884.71        500.000        3175.41     
  1882.21        500.000        3177.07     
  1879.70        500.000        3179.39     
  1877.19        500.000        3180.88     
  1874.69        500.000        3182.65     
  1872.18        500.000        3183.97     
  1869.67        500.000        3185.61     
  1867.17        500.000        3187.18     
  1864.66        500.000        3188.67     
  1862.16        500.000        2912.59     
  1859.65        500.000        3192.29     
  1857.14        500.000        3192.78     
  1854.64        500.000        3195.04     
  1852.13        500.000        3196.69     
  1849.62        500.000        3198.08     
  1847.12        500.000        3199.84     
  1844.61        500.000        3201.69     
  1842.11        500.000        3203.23     
  1839.60        500.000        3204.92     
  1837.09        500.000        3206.53     
  1834.59        500.000        3208.02     
  1832.08        500.000        3209.58     
  1829.57        500.000        3212.02     
  1827.07        500.000        3212.71     
  1824.56        500.000        3214.81     
  1822.06        500.000        3215.96     
  1819.55        500.000        3227.58     
  1817.04        500.000        3214.18     
  1814.54        500.000        3220.58     
  1812.03        500.000        3222.34     
  1809.52        500.000        3223.79     
  1807.02        500.000        3225.78     
  1804.51        500.000        3226.88     
  1802.01        500.000        3228.83     
  1799.50        500.000        3229.83     
  1796.99        500.000        3232.06     
  1794.49        500.000        3233.21     
  1791.98        500.000        3234.40     
  1789.47        500.000        3237.78     
  1786.97        500.000        3238.29     
  1784.46        500.000        3240.40     
  1781.95        500.000        3241.93     
  1779.45        500.000        3243.05     
  1776.94        500.000        3244.57     
  1774.44        500.000        3247.17     
  1771.93        500.000        3247.80     
  1769.42        500.000        3248.72     
  1766.92        500.000        3250.65     
  1764.41        500.000        3253.61     
  1761.90        500.000        3254.72     
  1759.40        500.000        3255.64     
  1756.89        500.000        3258.08     
  1754.39        500.000        3259.61     
  1751.88        500.000        3261.39     
  1749.37        500.000        3262.27     
  1746.87        500.000        3263.25     
  1744.36        500.000        3265.63     
  1741.85        500.000        3266.81     
  1739.35        500.000        3268.68     
  1736.84        500.000        3270.34     
  1734.34        500.000        3272.25     
  1731.83        500.000        3273.75     
  1729.32        500.000        3274.06     
  1726.82        500.000        3276.30     
  1724.31        500.000        3278.57     
  1721.80        500.000        3280.28     
  1719.30        500.000        3280.89     
  1716.79        500.000        3283.09     
  1714.29        500.000        3284.76     
  1711.78        500.000        3285.02     
  1709.27        500.000        3290.04     
  1706.77        500.000        3288.34     
  1704.26        500.000        3291.29     
  1701.75        500.000        3291.38     
  1699.25        500.000        3294.85     
  1696.74        500.000        3295.68     
  1694.24        500.000        3296.78     
  1691.73        500.000        3298.80     
  1689.22        500.000        3300.79     
  1686.72        500.000        3301.23     
  1684.21        500.000        3303.73     
  1681.70        500.000        3304.50     
  1679.20        500.000        3306.40     
  1676.69        500.000        3308.36     
  1674.19        500.000        3308.72     
  1671.68        500.000        3311.42     
  1669.17        500.000        3311.53     
  1666.67        500.000        3313.50     
  1664.16        500.000        3314.59     
  1661.65        500.000        3316.16     
  1659.15        500.000        3317.85     
  1656.64        500.000        3318.51     
  1654.14        500.000        3320.16     
  1651.63        500.000        3322.42     
  1649.12        500.000        3322.35     
  1646.62        500.000        3323.86     
  1644.11        500.000        3332.48     
  1641.60        500.000        3330.14     
  1639.10        500.000        3328.94     
  1636.59        500.000        3330.45     
  1634.09        500.000        3331.10     
  1631.58        500.000        3334.33     
  1629.07        500.000        3334.15     
  1626.57        500.000        3337.44     
  1624.06        500.000        3335.23     
  1621.55        500.000        3340.60     
  1619.05        500.000        3338.85     
  1616.54        500.000        3340.51     
  1614.04        500.000        3301.32     
  1611.53        500.000        3235.34     
  1609.02        500.000        3247.05     
  1606.52        500.000        3236.38     
  1604.01        500.000        3237.82     
  1601.50        500.000        3239.46     
  1599.00        500.000        3239.68     
  1596.49        500.000        3240.55     
  1593.98        500.000        3241.29     
  1591.48        500.000        3241.77     
  1588.97        500.000        3243.11     
  1586.47        500.000        3243.50     
  1583.96        500.000        3245.65     
  1581.45        500.000        3246.59     
  1578.95        500.000        3246.18     
  1576.44        500.000        3247.25     
  1573.93        500.000        3247.90     
  1571.43        500.000        3248.79     
  1568.92        500.000        3248.27     
  1566.42        500.000        3250.26     
  1563.91        500.000        3268.39     
  1561.40        500.000        3251.94     
  1558.90        500.000        3250.60     
  1556.39        500.000        3254.00     
  1553.88        500.000        3252.93     
  1551.38        500.000        3253.74     
  1548.87        500.000        3254.99     
  1546.37        500.000        3256.96     
  1543.86        500.000        3257.59     
  1541.35        500.000        3257.49     
  1538.85        500.000        3262.62     
  1536.34        500.000        3259.20     
  1533.83        500.000        3263.53     
  1531.33        500.000        3261.54     
  1528.82        500.000        3265.41     
  1526.32        500.000        3263.63     
  1523.81        500.000        3287.00     
  1521.30        500.000        3265.46     
  1518.80        500.000        3266.55     
  1516.29        500.000        3267.81     
  1513.78        500.000        3268.84     
  1511.28        500.000        3269.63     
  1508.77        500.000        3270.45     
  1506.27        500.000        3271.45     
  1503.76        500.000        3272.82     
  1501.25        500.000        3273.23     
  1498.75        500.000        3274.57     
  1496.24        500.000        3261.10     
  1493.73        500.000        3262.31     
  1491.23        500.000        3263.11     
  1488.72        500.000        3264.02     
  1486.22        500.000        3265.82     
  1483.71        500.000        3267.53     
  1481.20        500.000        3268.70     
  1478.70        500.000        3270.28     
  1476.19        500.000        3271.80     
  1473.68        500.000        3273.86     
  1471.18        500.000        3275.04     
  1468.67        500.000        3276.54     
  1466.17        500.000        3277.13     
  1463.66        500.000        3279.21     
  1461.15        500.000        3264.35     
  1458.65        500.000        3263.06     
  1456.14        500.000        3265.07     
  1453.63        500.000        3267.10     
  1451.13        500.000        3269.22     
  1448.62        500.000        3271.29     
  1446.12        500.000        3273.13     
  1443.61        500.000        3275.42     
  1441.10        500.000        3277.32     
  1438.60        500.000        3279.45     
  1436.09        500.000        3281.35     
  1433.58        500.000        3283.83     
  1431.08        500.000        3285.36     
  1428.57        500.000        3215.04     
  1426.07        500.000        3106.85     
  1423.56        500.000        3109.69     
  1421.05        500.000        3112.14     
  1418.55        500.000        3114.71     
  1416.04        500.000        3117.22     
  1413.53        500.000        3120.05     
  1411.03        500.000        3122.57     
  1408.52        500.000        3125.02     
  1406.02        500.000        3127.39     
  1403.51        500.000        3130.19     
  1401.00        500.000        3133.38     
  1398.50        500.000        3135.44     
  1395.99        500.000        3137.92     
  1393.48        500.000        3140.60     
  1390.98        500.000        3142.99     
  1388.47        500.000        3145.56     
  1385.96        500.000        3148.33     
  1383.46        500.000        3150.76     
  1380.95        500.000        3153.16     
  1378.45        500.000        3155.74     
  1375.94        500.000        3158.42     
  1373.43        500.000        3160.69     
  1370.93        500.000        3163.37     
  1368.42        500.000        3166.48     
  1365.91        500.000        3168.53     
  1363.41        500.000        3171.34     
  1360.90        500.000        3173.59     
  1358.40        500.000        3176.44     
  1355.89        500.000        3178.91     
  1353.38        500.000        3172.57     
  1350.88        500.000        3211.51     
  1348.37        500.000        3228.60     
  1345.86        500.000        3231.30     
  1343.36        500.000        3234.58     
  1340.85        500.000        3237.62     
  1338.35        500.000        3239.99     
  1335.84        500.000        3242.42     
  1333.33        500.000        3245.37     
  1330.83        500.000        3247.85     
  1328.32        500.000        3250.80     
  1325.81        500.000        3253.63     
  1323.31        500.000        3256.44     
  1320.80        500.000        3258.83     
  1318.30        500.000        3271.91     
  1315.79        500.000        3270.68     
  1313.28        500.000        3273.54     
  1310.78        500.000        3276.72     
  1308.27        500.000        3280.38     
  1305.76        500.000        3283.35     
  1303.26        500.000        3284.59     
  1300.75        500.000        3290.98     
  1298.25        500.000        3293.17     
  1295.74        500.000        3296.84     
  1293.23        500.000        3300.49     
  1290.73        500.000        3303.85     
  1288.22        500.000        3306.74     
  1285.71        500.000        3310.38     
  1283.21        500.000        3312.83     
  1280.70        500.000        3315.67     
  1278.20        500.000        3317.91     
  1275.69        500.000        3318.64     
  1273.18        500.000        3312.09     
  1270.68        500.000        3312.31     
  1268.17        500.000        3313.81     
  1265.66        500.000        3313.65     
  1263.16        500.000        3313.22     
  1260.65        500.000        3310.39     
  1258.15        500.000        2850.26     
  1255.64        500.000        2821.12     
  1253.13        500.000        2844.33     
  1250.63        500.000        2872.74     
  1248.12        500.000        2902.61     
  1245.61        500.000        2802.37     
  1243.11        500.000        2791.52     
  1240.60        500.000        2792.43     
  1238.10        500.000        2796.33     
  1235.59        500.000        2801.04     
  1233.08        500.000        2799.74     
  1230.58        500.000        2798.40     
  1228.07        500.000        2797.65     
  1225.56        500.000        2796.86     
  1223.06        500.000        2796.26     
  1220.55        500.000        2795.53     
  1218.05        500.000        2795.18     
  1215.54        500.000        2794.80     
  1213.03        500.000        2793.71     
  1210.53        500.000        2792.86     
  1208.02        500.000        2792.83     
  1205.51        500.000        2791.93     
  1203.01        500.000        2790.96     
  1200.50        500.000        2790.14     
  1197.99        500.000        2789.35     
  1195.49        500.000        2788.35     
  1192.98        500.000        2787.09     
  1190.48        500.000        2651.21     
  1187.97        500.000        2628.58     
  1185.46        500.000        2628.69     
  1182.96        500.000        2628.80     
  1180.45        500.000        2628.91     
  1177.94        500.000        2629.01     
  1175.44        500.000        2629.12     
  1172.93        500.000        2629.23     
  1170.43        500.000        2629.34     
  1167.92        500.000        2629.43     
  1165.41        500.000        2629.56     
  1162.91        500.000        2629.67     
  1160.40        500.000        2629.77     
  1157.89        500.000        2629.88     
  1155.39        500.000        2629.99     
  1152.88        500.000        2630.10     
  1150.38        500.000        2630.21     
  1147.87        500.000        2630.31     
  1145.36        500.000        2630.42     
  1142.86        500.000        2630.53     
  1140.35        500.000        2630.64     
  1137.84        500.000        2630.75     
  1135.34        500.000        2630.86     
  1132.83        500.000        2630.96     
  1130.33        500.000        2631.07     
  1127.82        500.000        2631.18     
  1125.31        500.000        2631.29     
  1122.81        500.000        2631.39     
  1120.30        500.000        2631.50     
  1117.79        500.000        2631.61     
  1115.29        500.000        2631.72     
  1112.78        500.000        2631.82     
  1110.28        500.000        2631.93     
  1107.77        500.000        2632.04     
  1105.26        500.000        2632.15     
  1102.76        500.000        2632.25     
  1100.25        500.000        2632.35     
  1097.74        500.000        2632.45     
  1095.24        500.000        2632.56     
  1092.73        500.000        2632.66     
  1090.23        500.000        2632.76     
  1087.72        500.000        2632.86     
  1085.21        500.000        2632.96     
  1082.71        500.000        2633.07     
  1080.20        500.000        2632.81     
  1077.69        500.000        2631.67     
  1075.19        500.000        2630.79     
  1072.68        500.000        2630.82     
  1070.18        500.000        2630.84     
  1067.67        500.000        2630.88     
  1065.16        500.000        2630.91     
  1062.66        500.000        2630.96     
  1060.15        500.000        2631.00     
  1057.64        500.000        2631.07     
  1055.14        500.000        2631.12     
  1052.63        500.000        2631.18     
  1050.13        500.000        2631.24     
  1047.62        500.000        2631.31     
  1045.11        500.000        2631.37     
  1042.61        500.000        2631.44     
  1040.10        500.000        2631.51     
  1037.59        500.000        2631.58     
  1035.09        500.000        2631.65     
  1032.58        500.000        2631.72     
  1030.08        500.000        2631.80     
  1027.57        500.000        2631.87     
  1025.06        500.000        2631.95     
  1022.56        500.000        2632.02     
  1020.05        500.000        2632.10     
  1017.54        500.000        2632.18     
  1015.04        500.000        2632.26     
  1012.53        500.000        2632.34     
  1010.03        500.000        2632.42     
  1007.52        500.000        2632.50     
  1005.01        500.000        2632.58     
  1002.51        500.000        2632.67     
  1000.00        500.000        2632.75     
