|6.6.6
Archiving\03_Data\fracLP/QFM_m4.75/GRV/GRV_6.tab                          
           1
T(K)    
  0.000000000000000E+000
  0.000000000000000E+000
           0
           3
T(K)           P(bar)         rho,kg/m3     
  2000.00        500.000        3552.33     
  1997.49        500.000        3552.70     
  1994.99        500.000        3553.07     
  1992.48        500.000        3553.44     
  1989.97        500.000        3553.81     
  1987.47        500.000        3554.18     
  1984.96        500.000        3554.55     
  1982.46        500.000        3554.92     
  1979.95        500.000        3555.29     
  1977.44        500.000        3555.66     
  1974.94        500.000        3556.03     
  1972.43        500.000        3556.40     
  1969.92        500.000        3556.77     
  1967.42        500.000        3557.14     
  1964.91        500.000        3557.50     
  1962.41        500.000        3558.08     
  1959.90        500.000        3622.98     
  1957.39        500.000        3685.66     
  1954.89        500.000        3746.11     
  1952.38        500.000        3804.34     
  1949.87        500.000        3860.63     
  1947.37        500.000        3915.30     
  1944.86        500.000        3967.62     
  1942.36        500.000        4018.34     
  1939.85        500.000        4067.49     
  1937.34        500.000        4115.11     
  1934.84        500.000        4161.25     
  1932.33        500.000        4205.87     
  1929.82        500.000        4249.19     
  1927.32        500.000        4291.19     
  1924.81        500.000        4331.97     
  1922.31        500.000        4371.61     
  1919.80        500.000        4410.08     
  1917.29        500.000        4447.43     
  1914.79        500.000        4483.83     
  1912.28        500.000        4519.16     
  1909.77        500.000        4553.58     
  1907.27        500.000        4591.67     
  1904.76        500.000        4597.00     
  1902.26        500.000        4651.45     
  1899.75        500.000        4682.45     
  1897.24        500.000        4712.59     
  1894.74        500.000        4662.92     
  1892.23        500.000        4770.74     
  1889.72        500.000        4798.77     
  1887.22        500.000        4826.11     
  1884.71        500.000        4852.80     
  1882.21        500.000        4878.89     
  1879.70        500.000        4904.38     
  1877.19        500.000        4929.27     
  1874.69        500.000        4953.62     
  1872.18        500.000        4977.44     
  1869.67        500.000        5018.53     
  1867.17        500.000        5023.48     
  1864.66        500.000        5045.79     
  1862.16        500.000        5067.59     
  1859.65        500.000        5088.99     
  1857.14        500.000        5109.87     
  1854.64        500.000        5130.37     
  1852.13        500.000        5150.44     
  1849.62        500.000        5170.10     
  1847.12        500.000        5189.39     
  1844.61        500.000        5208.30     
  1842.11        500.000        5226.83     
  1839.60        500.000        5248.71     
  1837.09        500.000        5261.08     
  1834.59        500.000        5280.34     
  1832.08        500.000        5297.52     
  1829.57        500.000        5314.37     
  1827.07        500.000        5330.96     
  1824.56        500.000        5347.17     
  1822.06        500.000        5363.14     
  1819.55        500.000        5378.82     
  1817.04        500.000        5394.26     
  1814.54        500.000        5409.33     
  1812.03        500.000        5424.20     
  1809.52        500.000        5438.82     
  1807.02        500.000        5453.20     
  1804.51        500.000        5467.32     
  1802.01        500.000        5481.23     
  1799.50        500.000        5494.89     
  1796.99        500.000        5508.35     
  1794.49        500.000        5521.56     
  1791.98        500.000        5534.58     
  1789.47        500.000        5546.79     
  1786.97        500.000        5552.67     
  1784.46        500.000        5562.55     
  1781.95        500.000        5573.57     
  1779.45        500.000        5584.94     
  1776.94        500.000        5596.48     
  1774.44        500.000        5603.38     
  1771.93        500.000        5604.74     
  1769.42        500.000        5613.48     
  1766.92        500.000        5636.74     
  1764.41        500.000        5646.78     
  1761.90        500.000        5656.69     
  1759.40        500.000        5666.48     
  1756.89        500.000        5676.14     
  1754.39        500.000        5685.65     
  1751.88        500.000        5013.86     
  1749.37        500.000        3264.14     
  1746.87        500.000        3266.26     
  1744.36        500.000        3267.99     
  1741.85        500.000        3269.57     
  1739.35        500.000        3270.90     
  1736.84        500.000        3272.06     
  1734.34        500.000        3273.53     
  1731.83        500.000        3275.05     
  1729.32        500.000        3276.15     
  1726.82        500.000        3277.89     
  1724.31        500.000        3280.19     
  1721.80        500.000        3280.57     
  1719.30        500.000        3281.64     
  1716.79        500.000        3284.15     
  1714.29        500.000        3285.17     
  1711.78        500.000        3285.33     
  1709.27        500.000        3288.15     
  1706.77        500.000        3291.52     
  1704.26        500.000        3290.68     
  1701.75        500.000        3292.10     
  1699.25        500.000        3293.29     
  1696.74        500.000        3294.78     
  1694.24        500.000        3296.33     
  1691.73        500.000        3298.09     
  1689.22        500.000        3298.69     
  1686.72        500.000        3298.60     
  1684.21        500.000        3300.87     
  1681.70        500.000        3302.00     
  1679.20        500.000        3304.18     
  1676.69        500.000        3304.49     
  1674.19        500.000        3305.88     
  1671.68        500.000        3307.90     
  1669.17        500.000        3308.73     
  1666.67        500.000        3310.50     
  1664.16        500.000        3311.19     
  1661.65        500.000        3312.63     
  1659.15        500.000        3313.89     
  1656.64        500.000        3314.78     
  1654.14        500.000        3315.97     
  1651.63        500.000        3316.62     
  1649.12        500.000        3318.36     
  1646.62        500.000        3317.71     
  1644.11        500.000        3320.06     
  1641.60        500.000        3322.05     
  1639.10        500.000        3322.75     
  1636.59        500.000        3223.42     
  1634.09        500.000        3213.19     
  1631.58        500.000        3214.12     
  1629.07        500.000        3215.00     
  1626.57        500.000        3216.83     
  1624.06        500.000        3217.07     
  1621.55        500.000        3216.98     
  1619.05        500.000        3218.53     
  1616.54        500.000        3219.48     
  1614.04        500.000        3220.50     
  1611.53        500.000        3221.02     
  1609.02        500.000        3221.91     
  1606.52        500.000        3223.03     
  1604.01        500.000        3223.83     
  1601.50        500.000        3224.90     
  1599.00        500.000        3225.66     
  1596.49        500.000        3226.38     
  1593.98        500.000        3227.56     
  1591.48        500.000        3228.57     
  1588.97        500.000        3229.45     
  1586.47        500.000        3230.10     
  1583.96        500.000        3231.30     
  1581.45        500.000        3234.50     
  1578.95        500.000        3233.48     
  1576.44        500.000        3235.23     
  1573.93        500.000        3235.13     
  1571.43        500.000        3236.32     
  1568.92        500.000        3237.61     
  1566.42        500.000        3237.98     
  1563.91        500.000        3238.89     
  1561.40        500.000        3239.99     
  1558.90        500.000        3241.28     
  1556.39        500.000        3242.05     
  1553.88        500.000        3243.09     
  1551.38        500.000        3244.38     
  1548.87        500.000        3246.19     
  1546.37        500.000        3246.34     
  1543.86        500.000        3247.42     
  1541.35        500.000        3247.93     
  1538.85        500.000        3234.73     
  1536.34        500.000        3236.06     
  1533.83        500.000        3242.76     
  1531.33        500.000        3236.49     
  1528.82        500.000        3237.00     
  1526.32        500.000        3239.45     
  1523.81        500.000        3241.48     
  1521.30        500.000        3243.38     
  1518.80        500.000        3245.23     
  1516.29        500.000        3247.17     
  1513.78        500.000        3249.14     
  1511.28        500.000        3251.02     
  1508.77        500.000        3253.03     
  1506.27        500.000        3255.38     
  1503.76        500.000        3257.05     
  1501.25        500.000        3258.95     
  1498.75        500.000        3261.16     
  1496.24        500.000        3263.24     
  1493.73        500.000        3265.30     
  1491.23        500.000        3267.33     
  1488.72        500.000        3269.51     
  1486.22        500.000        3271.56     
  1483.71        500.000        3273.44     
  1481.20        500.000        3275.49     
  1478.70        500.000        3277.69     
  1476.19        500.000        3279.72     
  1473.68        500.000        3284.28     
  1471.18        500.000        3286.88     
  1468.67        500.000        3288.95     
  1466.17        500.000        3291.09     
  1463.66        500.000        3293.12     
  1461.15        500.000        3295.27     
  1458.65        500.000        3297.47     
  1456.14        500.000        3299.63     
  1453.63        500.000        3301.94     
  1451.13        500.000        3303.83     
  1448.62        500.000        3305.79     
  1446.12        500.000        3308.39     
  1443.61        500.000        3310.56     
  1441.10        500.000        3312.60     
  1438.60        500.000        3314.99     
  1436.09        500.000        3317.01     
  1433.58        500.000        3319.16     
  1431.08        500.000        3321.44     
  1428.57        500.000        3323.84     
  1426.07        500.000        3326.01     
  1423.56        500.000        3328.23     
  1421.05        500.000        3330.62     
  1418.55        500.000        3332.76     
  1416.04        500.000        3335.10     
  1413.53        500.000        3337.53     
  1411.03        500.000        3339.71     
  1408.52        500.000        3342.32     
  1406.02        500.000        3344.71     
  1403.51        500.000        3155.07     
  1401.00        500.000        3176.76     
  1398.50        500.000        3209.26     
  1395.99        500.000        3210.03     
  1393.48        500.000        3210.87     
  1390.98        500.000        3211.66     
  1388.47        500.000        3212.50     
  1385.96        500.000        3213.27     
  1383.46        500.000        3214.07     
  1380.95        500.000        3214.84     
  1378.45        500.000        3215.58     
  1375.94        500.000        3232.26     
  1373.43        500.000        3235.37     
  1370.93        500.000        3224.35     
  1368.42        500.000        3259.16     
  1365.91        500.000        3281.58     
  1363.41        500.000        3267.63     
  1360.90        500.000        3238.68     
  1358.40        500.000        3223.74     
  1355.89        500.000        3215.96     
  1353.38        500.000        3212.10     
  1350.88        500.000        3209.64     
  1348.37        500.000        3162.49     
  1345.86        500.000        3135.15     
  1343.36        500.000        3304.57     
  1340.85        500.000        3442.97     
  1338.35        500.000        2835.05     
  1335.84        500.000        2710.13     
  1333.33        500.000        2710.27     
  1330.83        500.000        3378.47     
  1328.32        500.000        3721.72     
  1325.81        500.000        3136.72     
  1323.31        500.000        3575.28     
  1320.80        500.000        3178.04     
  1318.30        500.000        3202.80     
  1315.79        500.000        3207.43     
  1313.28        500.000        3212.99     
  1310.78        500.000        3217.56     
  1308.27        500.000        3242.73     
  1305.76        500.000        3216.90     
  1303.26        500.000        3249.05     
  1300.75        500.000        3228.27     
  1298.25        500.000        3229.39     
  1295.74        500.000        3249.07     
  1293.23        500.000        3250.06     
  1290.73        500.000        3229.21     
  1288.22        500.000        3254.14     
  1285.71        500.000        3258.62     
  1283.21        500.000        3268.47     
  1280.70        500.000        3294.41     
  1278.20        500.000        3296.60     
  1275.69        500.000        3299.56     
  1273.18        500.000        3303.56     
  1270.68        500.000        3309.82     
  1268.17        500.000        3317.04     
  1265.66        500.000        3316.31     
  1263.16        500.000        3316.46     
  1260.65        500.000        3316.70     
  1258.15        500.000        3318.36     
  1255.64        500.000        3319.89     
  1253.13        500.000        3321.62     
  1250.63        500.000        3322.69     
  1248.12        500.000        3324.16     
  1245.61        500.000        2963.55     
  1243.11        500.000        2816.89     
  1240.60        500.000        2817.20     
  1238.10        500.000        2817.22     
  1235.59        500.000        2817.40     
  1233.08        500.000        2817.56     
  1230.58        500.000        2817.76     
  1228.07        500.000        2817.18     
  1225.56        500.000        2817.32     
  1223.06        500.000        2682.01     
  1220.55        500.000        2669.85     
  1218.05        500.000        2678.09     
  1215.54        500.000        2682.64     
  1213.03        500.000        2684.07     
  1210.53        500.000        2683.38     
  1208.02        500.000        2681.96     
  1205.51        500.000        2654.92     
  1203.01        500.000        3152.00     
  1200.50        500.000        2702.82     
  1197.99        500.000        2667.23     
  1195.49        500.000        2640.24     
  1192.98        500.000        2667.26     
  1190.48        500.000        2632.78     
  1187.97        500.000        2632.82     
  1185.46        500.000        2632.76     
  1182.96        500.000        2628.58     
  1180.45        500.000        2628.67     
  1177.94        500.000        2628.77     
  1175.44        500.000        2633.38     
  1172.93        500.000        2633.48     
  1170.43        500.000        2633.60     
  1167.92        500.000        2633.71     
  1165.41        500.000        2633.84     
  1162.91        500.000        2633.95     
  1160.40        500.000        2634.09     
  1157.89        500.000        2634.17     
  1155.39        500.000        2633.26     
  1152.88        500.000        2629.84     
  1150.38        500.000        2630.01     
  1147.87        500.000        2630.11     
  1145.36        500.000        2630.21     
  1142.86        500.000        2630.31     
  1140.35        500.000        2630.41     
  1137.84        500.000        2635.05     
  1135.34        500.000        2630.61     
  1132.83        500.000        2633.76     
  1130.33        500.000        2630.81     
  1127.82        500.000        2630.91     
  1125.31        500.000        2631.01     
  1122.81        500.000        2631.11     
  1120.30        500.000        2631.21     
  1117.79        500.000        2631.31     
  1115.29        500.000        2631.41     
  1112.78        500.000        2631.51     
  1110.28        500.000        2631.61     
  1107.77        500.000        2631.71     
  1105.26        500.000        2631.82     
  1102.76        500.000        2631.91     
  1100.25        500.000        2632.01     
  1097.74        500.000        2632.11     
  1095.24        500.000        2632.38     
  1092.73        500.000        2632.48     
  1090.23        500.000        2632.58     
  1087.72        500.000        2632.68     
  1085.21        500.000        2632.77     
  1082.71        500.000        2632.87     
  1080.20        500.000        2632.97     
  1077.69        500.000        2633.07     
  1075.19        500.000        2633.17     
  1072.68        500.000        2633.27     
  1070.18        500.000        2633.37     
  1067.67        500.000        2633.47     
  1065.16        500.000        2633.57     
  1062.66        500.000        2633.67     
  1060.15        500.000        2633.77     
  1057.64        500.000        2633.87     
  1055.14        500.000        2633.67     
  1052.63        500.000        2633.76     
  1050.13        500.000        2633.86     
  1047.62        500.000        2633.96     
  1045.11        500.000        2634.06     
  1042.61        500.000        2634.16     
  1040.10        500.000        2634.26     
  1037.59        500.000        2634.41     
  1035.09        500.000        2634.51     
  1032.58        500.000        2634.51     
  1030.08        500.000        2634.60     
  1027.57        500.000        2634.70     
  1025.06        500.000        2634.80     
  1022.56        500.000        2634.90     
  1020.05        500.000        2634.83     
  1017.54        500.000        2636.73     
  1015.04        500.000        2636.75     
  1012.53        500.000        2636.90     
  1010.03        500.000        2636.92     
  1007.52        500.000        2637.01     
  1005.01        500.000        2637.15     
  1002.51        500.000        2637.24     
  1000.00        500.000        2637.32     
