|6.6.6
Archiving\03_Data\frac/QFM_m4/NWA1068/NWA1068_6.tab                       
           1
T(K)    
  0.000000000000000E+000
  0.000000000000000E+000
           0
           3
T(K)           P(bar)         rho,kg/m3     
  2000.00        2500.00        3681.23     
  1997.49        2500.00        3681.62     
  1994.99        2500.00        3682.00     
  1992.48        2500.00        3682.39     
  1989.97        2500.00        3682.78     
  1987.47        2500.00        3683.16     
  1984.96        2500.00        3683.55     
  1982.46        2500.00        3683.93     
  1979.95        2500.00        3684.32     
  1977.44        2500.00        3684.70     
  1974.94        2500.00        3685.09     
  1972.43        2500.00        3685.47     
  1969.92        2500.00        3685.86     
  1967.42        2500.00        3686.24     
  1964.91        2500.00        3686.63     
  1962.41        2500.00        3687.01     
  1959.90        2500.00        3687.39     
  1957.39        2500.00        3687.78     
  1954.89        2500.00        3688.16     
  1952.38        2500.00        3688.55     
  1949.87        2500.00        3688.93     
  1947.37        2500.00        3689.31     
  1944.86        2500.00        3689.70     
  1942.36        2500.00        3690.08     
  1939.85        2500.00        3690.46     
  1937.34        2500.00        3690.85     
  1934.84        2500.00        3691.23     
  1932.33        2500.00        3691.61     
  1929.82        2500.00        3691.99     
  1927.32        2500.00        3692.38     
  1924.81        2500.00        3692.76     
  1922.31        2500.00        3693.14     
  1919.80        2500.00        3693.52     
  1917.29        2500.00        3693.90     
  1914.79        2500.00        3694.29     
  1912.28        2500.00        3694.67     
  1909.77        2500.00        3695.05     
  1907.27        2500.00        3695.43     
  1904.76        2500.00        3695.81     
  1902.26        2500.00        3696.19     
  1899.75        2500.00        3696.57     
  1897.24        2500.00        3696.95     
  1894.74        2500.00        3697.34     
  1892.23        2500.00        3697.72     
  1889.72        2500.00        3698.10     
  1887.22        2500.00        3698.48     
  1884.71        2500.00        3698.86     
  1882.21        2500.00        3699.24     
  1879.70        2500.00        3699.62     
  1877.19        2500.00        3700.00     
  1874.69        2500.00        3700.38     
  1872.18        2500.00        3700.76     
  1869.67        2500.00        3701.13     
  1867.17        2500.00        3701.51     
  1864.66        2500.00        3701.89     
  1862.16        2500.00        3702.27     
  1859.65        2500.00        3702.65     
  1857.14        2500.00        3703.03     
  1854.64        2500.00        3703.41     
  1852.13        2500.00        3703.79     
  1849.62        2500.00        3704.16     
  1847.12        2500.00        3704.54     
  1844.61        2500.00        3704.92     
  1842.11        2500.00        3705.30     
  1839.60        2500.00        3705.68     
  1837.09        2500.00        3706.05     
  1834.59        2500.00        3706.43     
  1832.08        2500.00        3706.81     
  1829.57        2500.00        3707.19     
  1827.07        2500.00        3707.56     
  1824.56        2500.00        3707.94     
  1822.06        2500.00        3708.32     
  1819.55        2500.00        3708.69     
  1817.04        2500.00        3709.07     
  1814.54        2500.00        3709.45     
  1812.03        2500.00        3709.82     
  1809.52        2500.00        3710.20     
  1807.02        2500.00        3710.58     
  1804.51        2500.00        3710.95     
  1802.01        2500.00        3711.33     
  1799.50        2500.00        3711.70     
  1796.99        2500.00        3712.08     
  1794.49        2500.00        3712.45     
  1791.98        2500.00        3712.83     
  1789.47        2500.00        3713.20     
  1786.97        2500.00        3713.58     
  1784.46        2500.00        3713.95     
  1781.95        2500.00        3714.33     
  1779.45        2500.00        3714.70     
  1776.94        2500.00        3715.08     
  1774.44        2500.00        3715.45     
  1771.93        2500.00        3715.83     
  1769.42        2500.00        3716.20     
  1766.92        2500.00        3716.57     
  1764.41        2500.00        3716.95     
  1761.90        2500.00        3717.32     
  1759.40        2500.00        3717.70     
  1756.89        2500.00        3718.07     
  1754.39        2500.00        3718.44     
  1751.88        2500.00        3718.82     
  1749.37        2500.00        3719.19     
  1746.87        2500.00        3719.56     
  1744.36        2500.00        3719.93     
  1741.85        2500.00        3720.31     
  1739.35        2500.00        3720.68     
  1736.84        2500.00        3721.05     
  1734.34        2500.00        3721.42     
  1731.83        2500.00        3721.80     
  1729.32        2500.00        3722.17     
  1726.82        2500.00        3722.54     
  1724.31        2500.00        3722.91     
  1721.80        2500.00        3723.28     
  1719.30        2500.00        3723.66     
  1716.79        2500.00        3724.03     
  1714.29        2500.00        3724.40     
  1711.78        2500.00        3724.77     
  1709.27        2500.00        3725.14     
  1706.77        2500.00        3725.51     
  1704.26        2500.00        3725.88     
  1701.75        2500.00        3726.25     
  1699.25        2500.00        3726.62     
  1696.74        2500.00        3726.99     
  1694.24        2500.00        3727.37     
  1691.73        2500.00        3728.47     
  1689.22        2500.00        3733.79     
  1686.72        2500.00        3737.85     
  1684.21        2500.00        3738.14     
  1681.70        2500.00        3738.43     
  1679.20        2500.00        3738.73     
  1676.69        2500.00        3739.02     
  1674.19        2500.00        3739.30     
  1671.68        2500.00        3739.60     
  1669.17        2500.00        3739.91     
  1666.67        2500.00        3740.19     
  1664.16        2500.00        3595.34     
  1661.65        2500.00        3560.67     
  1659.15        2500.00        3407.70     
  1656.64        2500.00        3409.56     
  1654.14        2500.00        3411.66     
  1651.63        2500.00        3414.74     
  1649.12        2500.00        3416.17     
  1646.62        2500.00        3419.43     
  1644.11        2500.00        3421.54     
  1641.60        2500.00        3423.58     
  1639.10        2500.00        3425.93     
  1636.59        2500.00        3428.10     
  1634.09        2500.00        3430.69     
  1631.58        2500.00        3432.55     
  1629.07        2500.00        3434.89     
  1626.57        2500.00        3437.87     
  1624.06        2500.00        3437.30     
  1621.55        2500.00        3441.27     
  1619.05        2500.00        3442.39     
  1616.54        2500.00        3445.99     
  1614.04        2500.00        3447.55     
  1611.53        2500.00        3449.68     
  1609.02        2500.00        3452.45     
  1606.52        2500.00        3454.91     
  1604.01        2500.00        3456.27     
  1601.50        2500.00        3459.06     
  1599.00        2500.00        3460.64     
  1596.49        2500.00        3462.70     
  1593.98        2500.00        3465.80     
  1591.48        2500.00        3467.17     
  1588.97        2500.00        3469.71     
  1586.47        2500.00        3472.05     
  1583.96        2500.00        3474.93     
  1581.45        2500.00        3476.48     
  1578.95        2500.00        3478.18     
  1576.44        2500.00        3481.21     
  1573.93        2500.00        3482.79     
  1571.43        2500.00        3485.08     
  1568.92        2500.00        3487.37     
  1566.42        2500.00        3489.08     
  1563.91        2500.00        3492.57     
  1561.40        2500.00        3493.64     
  1558.90        2500.00        3495.99     
  1556.39        2500.00        3498.08     
  1553.88        2500.00        3500.26     
  1551.38        2500.00        3501.95     
  1548.87        2500.00        3505.36     
  1546.37        2500.00        3506.93     
  1543.86        2500.00        3508.76     
  1541.35        2500.00        3511.14     
  1538.85        2500.00        3512.44     
  1536.34        2500.00        3516.03     
  1533.83        2500.00        3519.23     
  1531.33        2500.00        3521.34     
  1528.82        2500.00        3522.05     
  1526.32        2500.00        3523.73     
  1523.81        2500.00        3525.76     
  1521.30        2500.00        3527.68     
  1518.80        2500.00        3530.27     
  1516.29        2500.00        3532.63     
  1513.78        2500.00        3417.91     
  1511.28        2500.00        3316.13     
  1508.77        2500.00        3317.34     
  1506.27        2500.00        3319.20     
  1503.76        2500.00        3320.17     
  1501.25        2500.00        3321.37     
  1498.75        2500.00        3322.00     
  1496.24        2500.00        3323.91     
  1493.73        2500.00        3323.29     
  1491.23        2500.00        3322.66     
  1488.72        2500.00        3300.84     
  1486.22        2500.00        3303.06     
  1483.71        2500.00        3305.21     
  1481.20        2500.00        3307.32     
  1478.70        2500.00        3309.65     
  1476.19        2500.00        3311.70     
  1473.68        2500.00        3313.84     
  1471.18        2500.00        3316.19     
  1468.67        2500.00        3320.13     
  1466.17        2500.00        3331.57     
  1463.66        2500.00        3322.75     
  1461.15        2500.00        3336.70     
  1458.65        2500.00        3342.52     
  1456.14        2500.00        3344.14     
  1453.63        2500.00        3346.33     
  1451.13        2500.00        3348.52     
  1448.62        2500.00        3350.56     
  1446.12        2500.00        3352.63     
  1443.61        2500.00        3354.47     
  1441.10        2500.00        3357.52     
  1438.60        2500.00        3359.20     
  1436.09        2500.00        3360.98     
  1433.58        2500.00        3363.09     
  1431.08        2500.00        3365.31     
  1428.57        2500.00        3367.29     
  1426.07        2500.00        3369.56     
  1423.56        2500.00        3371.59     
  1421.05        2500.00        3373.02     
  1418.55        2500.00        3377.12     
  1416.04        2500.00        3378.43     
  1413.53        2500.00        3380.69     
  1411.03        2500.00        3383.98     
  1408.52        2500.00        3384.83     
  1406.02        2500.00        3219.87     
  1403.51        2500.00        3202.93     
  1401.00        2500.00        3206.75     
  1398.50        2500.00        3210.46     
  1395.99        2500.00        3214.41     
  1393.48        2500.00        3218.19     
  1390.98        2500.00        3221.85     
  1388.47        2500.00        3225.72     
  1385.96        2500.00        3229.48     
  1383.46        2500.00        3232.39     
  1380.95        2500.00        3236.49     
  1378.45        2500.00        3239.78     
  1375.94        2500.00        3242.49     
  1373.43        2500.00        3246.35     
  1370.93        2500.00        3249.14     
  1368.42        2500.00        3252.42     
  1365.91        2500.00        3255.48     
  1363.41        2500.00        3257.75     
  1360.90        2500.00        3261.64     
  1358.40        2500.00        3266.09     
  1355.89        2500.00        3268.98     
  1353.38        2500.00        3269.91     
  1350.88        2500.00        3273.61     
  1348.37        2500.00        3275.26     
  1345.86        2500.00        3277.60     
  1343.36        2500.00        3278.78     
  1340.85        2500.00        3282.07     
  1338.35        2500.00        3285.19     
  1335.84        2500.00        3297.29     
  1333.33        2500.00        3328.45     
  1330.83        2500.00        3330.55     
  1328.32        2500.00        3331.80     
  1325.81        2500.00        3334.00     
  1323.31        2500.00        3334.18     
  1320.80        2500.00        3334.62     
  1318.30        2500.00        3335.84     
  1315.79        2500.00        3336.78     
  1313.28        2500.00        3337.05     
  1310.78        2500.00        3337.39     
  1308.27        2500.00        3338.48     
  1305.76        2500.00        3337.59     
  1303.26        2500.00        3338.61     
  1300.75        2500.00        3337.85     
  1298.25        2500.00        3338.16     
  1295.74        2500.00        2851.76     
  1293.23        2500.00        2851.36     
  1290.73        2500.00        2853.00     
  1288.22        2500.00        2854.07     
  1285.71        2500.00        2853.34     
  1283.21        2500.00        2850.88     
  1280.70        2500.00        2841.98     
  1278.20        2500.00        2844.83     
  1275.69        2500.00        2837.88     
  1273.18        2500.00        2841.04     
  1270.68        2500.00        2838.95     
  1268.17        2500.00        2835.92     
  1265.66        2500.00        2853.12     
  1263.16        2500.00        2848.11     
  1260.65        2500.00        2861.44     
  1258.15        2500.00        2854.59     
  1255.64        2500.00        2854.30     
  1253.13        2500.00        2822.57     
  1250.63        2500.00        2879.26     
  1248.12        2500.00        2852.10     
  1245.61        2500.00        2849.08     
  1243.11        2500.00        2790.17     
  1240.60        2500.00        3407.60     
  1238.10        2500.00        2927.35     
  1235.59        2500.00        2708.28     
  1233.08        2500.00        2977.55     
  1230.58        2500.00        2685.02     
  1228.07        2500.00        2684.58     
  1225.56        2500.00        2684.40     
  1223.06        2500.00        2684.64     
  1220.55        2500.00        2684.78     
  1218.05        2500.00        2685.11     
  1215.54        2500.00        2685.28     
  1213.03        2500.00        2685.26     
  1210.53        2500.00        2685.28     
  1208.02        2500.00        2685.42     
  1205.51        2500.00        2685.29     
  1203.01        2500.00        2685.70     
  1200.50        2500.00        2685.98     
  1197.99        2500.00        2685.54     
  1195.49        2500.00        2686.05     
  1192.98        2500.00        2686.47     
  1190.48        2500.00        2686.42     
  1187.97        2500.00        2686.44     
  1185.46        2500.00        2686.77     
  1182.96        2500.00        2686.48     
  1180.45        2500.00        2687.12     
  1177.94        2500.00        2687.26     
  1175.44        2500.00        2687.42     
  1172.93        2500.00        2687.52     
  1170.43        2500.00        2687.42     
  1167.92        2500.00        2687.71     
  1165.41        2500.00        2687.69     
  1162.91        2500.00        2687.91     
  1160.40        2500.00        2688.11     
  1157.89        2500.00        2688.29     
  1155.39        2500.00        2688.42     
  1152.88        2500.00        2688.57     
  1150.38        2500.00        2688.72     
  1147.87        2500.00        2688.75     
  1145.36        2500.00        2688.20     
  1142.86        2500.00        2689.01     
  1140.35        2500.00        2689.14     
  1137.84        2500.00        2688.56     
  1135.34        2500.00        2689.19     
  1132.83        2500.00        2689.32     
  1130.33        2500.00        2689.55     
  1127.82        2500.00        2689.59     
  1125.31        2500.00        2689.72     
  1122.81        2500.00        2689.78     
  1120.30        2500.00        2690.40     
  1117.79        2500.00        2690.11     
  1115.29        2500.00        2690.27     
  1112.78        2500.00        2690.40     
  1110.28        2500.00        2690.77     
  1107.77        2500.00        2690.60     
  1105.26        2500.00        2690.68     
  1102.76        2500.00        2690.34     
  1100.25        2500.00        2691.06     
  1097.74        2500.00        2691.28     
  1095.24        2500.00        2691.41     
  1092.73        2500.00        2691.78     
  1090.23        2500.00        2691.67     
  1087.72        2500.00        2692.22     
  1085.21        2500.00        2692.26     
  1082.71        2500.00        2692.49     
  1080.20        2500.00        2692.45     
  1077.69        2500.00        2692.43     
  1075.19        2500.00        2692.60     
  1072.68        2500.00        2684.24     
  1070.18        2500.00        2684.37     
  1067.67        2500.00        2684.49     
  1065.16        2500.00        2684.61     
  1062.66        2500.00        2684.73     
  1060.15        2500.00        2684.85     
  1057.64        2500.00        2684.98     
  1055.14        2500.00        2685.10     
  1052.63        2500.00        2685.22     
  1050.13        2500.00        2685.34     
  1047.62        2500.00        2685.46     
  1045.11        2500.00        2685.59     
  1042.61        2500.00        2685.71     
  1040.10        2500.00        2685.83     
  1037.59        2500.00        2685.95     
  1035.09        2500.00        2686.07     
  1032.58        2500.00        2686.20     
  1030.08        2500.00        2693.91     
  1027.57        2500.00        2686.44     
  1025.06        2500.00        2686.56     
  1022.56        2500.00        2686.68     
  1020.05        2500.00        2686.80     
  1017.54        2500.00        2686.92     
  1015.04        2500.00        2687.04     
  1012.53        2500.00        2687.17     
  1010.03        2500.00        2687.29     
  1007.52        2500.00        2695.59     
  1005.01        2500.00        2695.66     
  1002.51        2500.00        2695.36     
  1000.00        2500.00        2687.77     
