|6.6.6
Archiving\03_Data\eqLP/QFM_m1.75/ALH/ALH_6.tab                            
           1
T(K)    
  0.000000000000000E+000
  0.000000000000000E+000
           0
           3
T(K)           P(bar)         rho,kg/m3     
  2000.00        500.000        4954.13     
  1996.79        500.000        4955.04     
  1993.59        500.000        4955.96     
  1990.38        500.000        4956.88     
  1987.18        500.000        4957.79     
  1983.97        500.000        4958.71     
  1980.77        500.000        4959.62     
  1977.56        500.000        4960.54     
  1974.36        500.000        4961.45     
  1971.15        500.000        4962.36     
  1967.95        500.000        4963.27     
  1964.74        500.000        4964.18     
  1961.54        500.000        4965.09     
  1958.33        500.000        4966.00     
  1955.13        500.000        4966.91     
  1951.92        500.000        4967.82     
  1948.72        500.000        4968.73     
  1945.51        500.000        4969.64     
  1942.31        500.000        4970.54     
  1939.10        500.000        4971.45     
  1935.90        500.000        4972.35     
  1932.69        500.000        4973.26     
  1929.49        500.000        4974.16     
  1926.28        500.000        4975.07     
  1923.08        500.000        4975.97     
  1919.87        500.000        4976.87     
  1916.67        500.000        4977.77     
  1913.46        500.000        4978.67     
  1910.26        500.000        4979.57     
  1907.05        500.000        4980.47     
  1903.85        500.000        4981.37     
  1900.64        500.000        4982.27     
  1897.44        500.000        4983.17     
  1894.23        500.000        4984.07     
  1891.03        500.000        4984.96     
  1887.82        500.000        4985.86     
  1884.62        500.000        4986.75     
  1881.41        500.000        4018.35     
  1878.21        500.000        3549.36     
  1875.00        500.000        3422.60     
  1871.79        500.000        3362.81     
  1868.59        500.000        3333.57     
  1865.38        500.000        3314.25     
  1862.18        500.000        3300.58     
  1858.97        500.000        3290.45     
  1855.77        500.000        3282.68     
  1852.56        500.000        3276.56     
  1849.36        500.000        3271.64     
  1846.15        500.000        3267.61     
  1842.95        500.000        3250.70     
  1839.74        500.000        3237.11     
  1836.54        500.000        3238.60     
  1833.33        500.000        3239.98     
  1830.13        500.000        3241.18     
  1826.92        500.000        3243.27     
  1823.72        500.000        3245.90     
  1820.51        500.000        3248.35     
  1817.31        500.000        3251.21     
  1814.10        500.000        3253.89     
  1810.90        500.000        3256.41     
  1807.69        500.000        3258.79     
  1804.49        500.000        3261.04     
  1801.28        500.000        3263.18     
  1798.08        500.000        3265.21     
  1794.87        500.000        3267.15     
  1791.67        500.000        3269.81     
  1788.46        500.000        3272.35     
  1785.26        500.000        3274.77     
  1782.05        500.000        3277.10     
  1778.85        500.000        3279.34     
  1775.64        500.000        3281.48     
  1772.44        500.000        3283.55     
  1769.23        500.000        3285.54     
  1766.03        500.000        3288.00     
  1762.82        500.000        3290.38     
  1759.62        500.000        3292.67     
  1756.41        500.000        3294.89     
  1753.21        500.000        3297.04     
  1750.00        500.000        3299.13     
  1746.79        500.000        3301.15     
  1743.59        500.000        3303.12     
  1740.38        500.000        3305.44     
  1737.18        500.000        3307.70     
  1733.97        500.000        3309.89     
  1730.77        500.000        3312.03     
  1727.56        500.000        3314.12     
  1724.36        500.000        3316.15     
  1721.15        500.000        3318.13     
  1717.95        500.000        3320.06     
  1714.74        500.000        3322.13     
  1711.54        500.000        3324.15     
  1708.33        500.000        3326.12     
  1705.13        500.000        3328.06     
  1701.92        500.000        3329.95     
  1698.72        500.000        3331.81     
  1695.51        500.000        3333.63     
  1692.31        500.000        3335.41     
  1689.10        500.000        3337.24     
  1685.90        500.000        3339.05     
  1682.69        500.000        3340.82     
  1679.49        500.000        3342.56     
  1676.28        500.000        3344.27     
  1673.08        500.000        3345.96     
  1669.87        500.000        3347.61     
  1666.67        500.000        3349.25     
  1663.46        500.000        3350.84     
  1660.26        500.000        3352.41     
  1657.05        500.000        3353.96     
  1653.85        500.000        3355.50     
  1650.64        500.000        3357.01     
  1647.44        500.000        3358.50     
  1644.23        500.000        3359.97     
  1641.03        500.000        3361.42     
  1637.82        500.000        3362.83     
  1634.62        500.000        3364.22     
  1631.41        500.000        3365.60     
  1628.21        500.000        3366.96     
  1625.00        500.000        3368.31     
  1621.79        500.000        3369.64     
  1618.59        500.000        3370.96     
  1615.38        500.000        3372.27     
  1612.18        500.000        3373.52     
  1608.97        500.000        3374.77     
  1605.77        500.000        3376.00     
  1602.56        500.000        3377.22     
  1599.36        500.000        3378.43     
  1596.15        500.000        3379.63     
  1592.95        500.000        3380.83     
  1589.74        500.000        3382.01     
  1586.54        500.000        3383.09     
  1583.33        500.000        3384.17     
  1580.13        500.000        3385.25     
  1576.92        500.000        3386.31     
  1573.72        500.000        3387.37     
  1570.51        500.000        3388.42     
  1567.31        500.000        3389.47     
  1564.10        500.000        3390.50     
  1560.90        500.000        3391.51     
  1557.69        500.000        3392.51     
  1554.49        500.000        3393.51     
  1551.28        500.000        3394.50     
  1548.08        500.000        3395.48     
  1544.87        500.000        3396.46     
  1541.67        500.000        3397.44     
  1538.46        500.000        3398.41     
  1535.26        500.000        3399.36     
  1532.05        500.000        3400.32     
  1528.85        500.000        3399.96     
  1525.64        500.000        3399.49     
  1522.44        500.000        3399.17     
  1519.23        500.000        3398.87     
  1516.03        500.000        3398.58     
  1512.82        500.000        3398.31     
  1509.62        500.000        3398.14     
  1506.41        500.000        3397.99     
  1503.21        500.000        3397.85     
  1500.00        500.000        3397.71     
  1496.79        500.000        3397.59     
  1493.59        500.000        3397.47     
  1490.38        500.000        3397.37     
  1487.18        500.000        3397.27     
  1483.97        500.000        3396.95     
  1480.77        500.000        3396.65     
  1477.56        500.000        3396.49     
  1474.36        500.000        3396.36     
  1471.15        500.000        3395.71     
  1467.95        500.000        3394.50     
  1464.74        500.000        3394.95     
  1461.54        500.000        3393.71     
  1458.33        500.000        3394.17     
  1455.13        500.000        3394.62     
  1451.92        500.000        3395.08     
  1448.72        500.000        3395.53     
  1445.51        500.000        3395.98     
  1442.31        500.000        3396.44     
  1439.10        500.000        3396.89     
  1435.90        500.000        3392.59     
  1432.69        500.000        3393.04     
  1429.49        500.000        3393.49     
  1426.28        500.000        3393.94     
  1423.08        500.000        3392.88     
  1419.87        500.000        3393.33     
  1416.67        500.000        3393.19     
  1413.46        500.000        3391.89     
  1410.26        500.000        3389.58     
  1407.05        500.000        3390.02     
  1403.85        500.000        3390.47     
  1400.64        500.000        3390.91     
  1397.44        500.000        3391.36     
  1394.23        500.000        3391.81     
  1391.03        500.000        3392.25     
  1387.82        500.000        3392.70     
  1384.62        500.000        3377.82     
  1381.41        500.000        3378.25     
  1378.21        500.000        3378.69     
  1375.00        500.000        3379.13     
  1371.79        500.000        3379.57     
  1368.59        500.000        3380.00     
  1365.38        500.000        3380.44     
  1362.18        500.000        3380.88     
  1358.97        500.000        3371.44     
  1355.77        500.000        3371.87     
  1352.56        500.000        3372.30     
  1349.36        500.000        3372.73     
  1346.15        500.000        3373.16     
  1342.95        500.000        3373.59     
  1339.74        500.000        3374.02     
  1336.54        500.000        3374.45     
  1333.33        500.000        3367.16     
  1330.13        500.000        3367.59     
  1326.92        500.000        3368.02     
  1323.72        500.000        3368.44     
  1320.51        500.000        3368.87     
  1317.31        500.000        3369.29     
  1314.10        500.000        3369.72     
  1310.90        500.000        3370.14     
  1307.69        500.000        3364.05     
  1304.49        500.000        3364.48     
  1301.28        500.000        3363.45     
  1298.08        500.000        3347.49     
  1294.87        500.000        3347.86     
  1291.67        500.000        3348.28     
  1288.46        500.000        3348.69     
  1285.26        500.000        3349.11     
  1282.05        500.000        3349.37     
  1278.85        500.000        3349.79     
  1275.64        500.000        3350.20     
  1272.44        500.000        3350.62     
  1269.23        500.000        3351.04     
  1266.03        500.000        3351.45     
  1262.82        500.000        3351.86     
  1259.62        500.000        3352.28     
  1256.41        500.000        3352.44     
  1253.21        500.000        3352.86     
  1250.00        500.000        3353.27     
  1246.79        500.000        3353.69     
  1243.59        500.000        3354.10     
  1240.38        500.000        3354.51     
  1237.18        500.000        3354.92     
  1233.97        500.000        3355.34     
  1230.77        500.000        3355.53     
  1227.56        500.000        3355.95     
  1224.36        500.000        3356.36     
  1221.15        500.000        3356.77     
  1217.95        500.000        3357.18     
  1214.74        500.000        3357.59     
  1211.54        500.000        3358.00     
  1208.33        500.000        3358.41     
  1205.13        500.000        3358.64     
  1201.92        500.000        3359.05     
  1198.72        500.000        3359.46     
  1195.51        500.000        3359.87     
  1192.31        500.000        3360.28     
  1189.10        500.000        3360.69     
  1185.90        500.000        3361.09     
  1182.69        500.000        3361.50     
  1179.49        500.000        3361.78     
  1176.28        500.000        3362.18     
  1173.08        500.000        3362.59     
  1169.87        500.000        3363.00     
  1166.67        500.000        3363.40     
  1163.46        500.000        3363.81     
  1160.26        500.000        3364.22     
  1157.05        500.000        3364.62     
  1153.85        500.000        3364.93     
  1150.64        500.000        3365.34     
  1147.44        500.000        3365.75     
  1144.23        500.000        3366.15     
  1141.03        500.000        3366.56     
  1137.82        500.000        3366.96     
  1134.62        500.000        3367.37     
  1131.41        500.000        3367.77     
  1128.21        500.000        3368.11     
  1125.00        500.000        3368.52     
  1121.79        500.000        3368.92     
  1118.59        500.000        3369.32     
  1115.38        500.000        3369.73     
  1112.18        500.000        3370.13     
  1108.97        500.000        3370.53     
  1105.77        500.000        3370.94     
  1102.56        500.000        3371.32     
  1099.36        500.000        3371.72     
  1096.15        500.000        3372.12     
  1092.95        500.000        3372.52     
  1089.74        500.000        3372.92     
  1086.54        500.000        3373.32     
  1083.33        500.000        3373.72     
  1080.13        500.000        3374.13     
  1076.92        500.000        3374.53     
  1073.72        500.000        3374.94     
  1070.51        500.000        3375.34     
  1067.31        500.000        3375.74     
  1064.10        500.000        3376.15     
  1060.90        500.000        3376.55     
  1057.69        500.000        3376.95     
  1054.49        500.000        3377.35     
  1051.28        500.000        3377.76     
  1048.08        500.000        3378.16     
  1044.87        500.000        3378.56     
  1041.67        500.000        3378.96     
  1038.46        500.000        3379.35     
  1035.26        500.000        3379.75     
  1032.05        500.000        3380.15     
  1028.85        500.000        3380.55     
  1025.64        500.000        3380.98     
  1022.44        500.000        3381.38     
  1019.23        500.000        3381.78     
  1016.03        500.000        3382.17     
  1012.82        500.000        3382.57     
  1009.62        500.000        3382.97     
  1006.41        500.000        3383.36     
  1003.21        500.000        3383.76     
  1000.00        500.000        3384.21     
