|6.6.6
Archiving\03_Data\eqfracLP/QFM_m4.5/Y98/Y98_6.tab                         
           1
T(K)    
  0.000000000000000E+000
  0.000000000000000E+000
           0
           3
T(K)           P(bar)         rho,kg/m3     
  1458.33        500.000        3299.01     
  1457.18        500.000        3270.99     
  1456.03        500.000        3274.59     
  1454.88        500.000        3275.41     
  1453.74        500.000        3276.26     
  1452.59        500.000        3277.15     
  1451.44        500.000        3276.75     
  1450.29        500.000        3279.30     
  1449.14        500.000        3280.20     
  1447.99        500.000        3281.01     
  1446.84        500.000        3282.11     
  1445.69        500.000        3283.11     
  1444.55        500.000        3284.28     
  1443.40        500.000        3284.68     
  1442.25        500.000        3285.78     
  1441.10        500.000        3286.64     
  1439.95        500.000        3287.51     
  1438.80        500.000        3288.56     
  1437.65        500.000        3289.51     
  1436.50        500.000        3123.77     
  1435.36        500.000        3111.21     
  1434.21        500.000        3112.45     
  1433.06        500.000        3113.81     
  1431.91        500.000        3115.30     
  1430.76        500.000        3118.25     
  1429.61        500.000        3118.75     
  1428.46        500.000        3119.43     
  1427.32        500.000        3120.76     
  1426.17        500.000        3122.10     
  1425.02        500.000        3123.47     
  1423.87        500.000        3124.76     
  1422.72        500.000        3126.03     
  1421.57        500.000        3127.64     
  1420.42        500.000        3133.45     
  1419.27        500.000        3159.22     
  1418.13        500.000        3131.82     
  1416.98        500.000        3138.48     
  1415.83        500.000        3140.16     
  1414.68        500.000        3141.64     
  1413.53        500.000        3143.51     
  1412.38        500.000        3144.83     
  1411.23        500.000        3146.45     
  1410.08        500.000        3148.02     
  1408.94        500.000        3149.67     
  1407.79        500.000        3151.47     
  1406.64        500.000        3152.93     
  1405.49        500.000        3154.62     
  1404.34        500.000        3156.15     
  1403.19        500.000        3157.87     
  1402.04        500.000        3159.41     
  1400.90        500.000        3161.08     
  1399.75        500.000        3162.67     
  1398.60        500.000        3164.34     
  1397.45        500.000        3165.99     
  1396.30        500.000        3167.58     
  1395.15        500.000        3169.43     
  1394.00        500.000        3171.09     
  1392.85        500.000        3179.56     
  1391.71        500.000        3167.13     
  1390.56        500.000        3176.09     
  1389.41        500.000        3177.73     
  1388.26        500.000        3179.43     
  1387.11        500.000        3181.04     
  1385.96        500.000        3182.87     
  1384.81        500.000        3184.54     
  1383.66        500.000        3186.60     
  1382.52        500.000        3187.95     
  1381.37        500.000        3191.29     
  1380.22        500.000        2969.23     
  1379.07        500.000        3195.00     
  1377.92        500.000        3194.74     
  1376.77        500.000        3194.58     
  1375.62        500.000        3199.92     
  1374.48        500.000        3199.85     
  1373.33        500.000        3201.77     
  1372.18        500.000        3207.46     
  1371.03        500.000        2760.05     
  1369.88        500.000        3203.23     
  1368.73        500.000        3208.52     
  1367.58        500.000        3209.72     
  1366.43        500.000        3211.60     
  1365.29        500.000        3213.87     
  1364.14        500.000        3215.17     
  1362.99        500.000        3217.06     
  1361.84        500.000        3218.96     
  1360.69        500.000        3220.39     
  1359.54        500.000        3221.85     
  1358.39        500.000        3223.66     
  1357.24        500.000        3225.42     
  1356.10        500.000        3227.25     
  1354.95        500.000        3228.43     
  1353.80        500.000        3233.08     
  1352.65        500.000        3234.27     
  1351.50        500.000        3227.48     
  1350.35        500.000        3234.92     
  1349.20        500.000        3236.60     
  1348.06        500.000        3237.93     
  1346.91        500.000        3239.62     
  1345.76        500.000        3241.02     
  1344.61        500.000        3242.75     
  1343.46        500.000        3244.22     
  1342.31        500.000        3245.44     
  1341.16        500.000        3246.99     
  1340.01        500.000        3248.55     
  1338.87        500.000        3249.15     
  1337.72        500.000        3251.81     
  1336.57        500.000        3252.65     
  1335.42        500.000        3254.11     
  1334.27        500.000        3255.41     
  1333.12        500.000        3256.71     
  1331.97        500.000        3257.62     
  1330.82        500.000        3259.49     
  1329.68        500.000        3260.50     
  1328.53        500.000        3261.92     
  1327.38        500.000        3262.75     
  1326.23        500.000        3264.13     
  1325.08        500.000        3265.26     
  1323.93        500.000        3249.31     
  1322.78        500.000        3957.88     
  1321.64        500.000        3288.95     
  1320.49        500.000        3264.48     
  1319.34        500.000        3265.65     
  1318.19        500.000        3272.71     
  1317.04        500.000        3283.69     
  1315.89        500.000        3261.24     
  1314.74        500.000        3274.93     
  1313.59        500.000        3275.69     
  1312.45        500.000        3276.23     
  1311.30        500.000        3277.63     
  1310.15        500.000        3278.68     
  1309.00        500.000        3278.79     
  1307.85        500.000        3314.73     
  1306.70        500.000        3320.85     
  1305.55        500.000        3322.34     
  1304.40        500.000        3323.27     
  1303.26        500.000        3322.78     
  1302.11        500.000        3321.38     
  1300.96        500.000        3324.66     
  1299.81        500.000        3324.72     
  1298.66        500.000        3326.04     
  1297.51        500.000        3326.23     
  1296.36        500.000        3328.80     
  1295.22        500.000        3327.97     
  1294.07        500.000        3328.30     
  1292.92        500.000        3329.16     
  1291.77        500.000        3329.22     
  1290.62        500.000        3329.71     
  1289.47        500.000        3329.91     
  1288.32        500.000        3329.74     
  1287.17        500.000        3330.57     
  1286.03        500.000        3331.84     
  1284.88        500.000        3331.94     
  1283.73        500.000        3332.34     
  1282.58        500.000        3332.08     
  1281.43        500.000        3332.47     
  1280.28        500.000        3332.76     
  1279.13        500.000        3332.55     
  1277.98        500.000        2833.45     
  1276.84        500.000        2829.91     
  1275.69        500.000        2832.17     
  1274.54        500.000        2834.36     
  1273.39        500.000        2836.32     
  1272.24        500.000        2838.14     
  1271.09        500.000        2839.96     
  1269.94        500.000        2841.73     
  1268.80        500.000        2843.41     
  1267.65        500.000        2844.82     
  1266.50        500.000        2846.48     
  1265.35        500.000        2847.92     
  1264.20        500.000        2849.30     
  1263.05        500.000        2851.89     
  1261.90        500.000        2852.41     
  1260.75        500.000        2852.94     
  1259.61        500.000        2854.12     
  1258.46        500.000        2854.62     
  1257.31        500.000        2856.47     
  1256.16        500.000        2857.16     
  1255.01        500.000        2858.05     
  1253.86        500.000        2859.42     
  1252.71        500.000        2860.17     
  1251.56        500.000        2861.27     
  1250.42        500.000        2861.79     
  1249.27        500.000        2862.25     
  1248.12        500.000        2863.16     
  1246.97        500.000        2864.09     
  1245.82        500.000        2864.15     
  1244.67        500.000        2864.69     
  1243.52        500.000        2866.36     
  1242.38        500.000        2866.38     
  1241.23        500.000        2866.50     
  1240.08        500.000        2867.20     
  1238.93        500.000        2867.40     
  1237.78        500.000        2867.95     
  1236.63        500.000        2867.45     
  1235.48        500.000        2869.30     
  1234.33        500.000        2869.34     
  1233.19        500.000        2869.60     
  1232.04        500.000        2987.99     
  1230.89        500.000        2658.18     
  1229.74        500.000        3119.90     
  1228.59        500.000        2896.43     
  1227.44        500.000        2853.92     
  1226.29        500.000        2789.67     
  1225.14        500.000        2910.80     
  1224.00        500.000        2814.77     
  1222.85        500.000        3041.44     
  1221.70        500.000        2865.17     
  1220.55        500.000        2852.04     
  1219.40        500.000        2792.67     
  1218.25        500.000        2882.76     
  1217.10        500.000        3227.23     
  1215.95        500.000        2854.70     
  1214.81        500.000        2906.80     
  1213.66        500.000        2679.10     
  1212.51        500.000        2685.87     
  1211.36        500.000        2685.41     
  1210.21        500.000        2677.79     
  1209.06        500.000        2681.93     
  1207.91        500.000        2853.28     
  1206.77        500.000        2655.82     
  1205.62        500.000        2675.17     
  1204.47        500.000        2677.21     
  1203.32        500.000        2644.17     
  1202.17        500.000        2683.29     
  1201.02        500.000        2693.15     
  1199.87        500.000        2662.72     
  1198.72        500.000        3377.11     
  1197.58        500.000        2619.68     
  1196.43        500.000        2706.11     
  1195.28        500.000        2674.40     
  1194.13        500.000        2642.02     
  1192.98        500.000        2646.98     
  1191.83        500.000        2644.30     
  1190.68        500.000        2628.84     
  1189.53        500.000        2628.91     
  1188.39        500.000        2628.96     
  1187.24        500.000        2629.01     
  1186.09        500.000        2629.06     
  1184.94        500.000        2629.11     
  1183.79        500.000        2629.16     
  1182.64        500.000        2629.04     
  1181.49        500.000        2629.26     
  1180.35        500.000        2629.31     
  1179.20        500.000        2629.35     
  1178.05        500.000        2629.41     
  1176.90        500.000        2629.46     
  1175.75        500.000        2629.50     
  1174.60        500.000        2629.39     
  1173.45        500.000        2629.61     
  1172.30        500.000        2629.66     
  1171.16        500.000        2629.71     
  1170.01        500.000        2629.77     
  1168.86        500.000        2629.82     
  1167.71        500.000        2629.87     
  1166.56        500.000        2629.92     
  1165.41        500.000        2629.92     
  1164.26        500.000        2629.99     
  1163.11        500.000        2630.02     
  1161.97        500.000        2630.10     
  1160.82        500.000        2630.15     
  1159.67        500.000        2630.20     
  1158.52        500.000        2630.25     
  1157.37        500.000        2630.30     
  1156.22        500.000        2630.35     
  1155.07        500.000        2630.40     
  1153.93        500.000        2630.45     
  1152.78        500.000        2630.51     
  1151.63        500.000        2630.56     
  1150.48        500.000        2630.61     
  1149.33        500.000        2630.66     
  1148.18        500.000        2630.71     
  1147.03        500.000        2630.76     
  1145.88        500.000        2630.81     
  1144.74        500.000        2630.86     
  1143.59        500.000        2630.91     
  1142.44        500.000        2630.96     
  1141.29        500.000        2631.01     
  1140.14        500.000        2631.06     
  1138.99        500.000        2631.11     
  1137.84        500.000        2631.16     
  1136.69        500.000        2631.21     
  1135.55        500.000        2631.26     
  1134.40        500.000        2631.31     
  1133.25        500.000        2631.36     
  1132.10        500.000        2631.41     
  1130.95        500.000        2631.46     
  1129.80        500.000        2631.51     
  1128.65        500.000        2631.56     
  1127.51        500.000        2631.61     
  1126.36        500.000        2631.66     
  1125.21        500.000        2631.71     
  1124.06        500.000        2631.76     
  1122.91        500.000        2631.81     
  1121.76        500.000        2631.86     
  1120.61        500.000        2631.91     
  1119.46        500.000        2631.96     
  1118.32        500.000        2632.01     
  1117.17        500.000        2632.03     
  1116.02        500.000        2632.10     
  1114.87        500.000        2632.15     
  1113.72        500.000        2632.20     
  1112.57        500.000        2632.25     
  1111.42        500.000        2632.30     
  1110.27        500.000        2632.35     
  1109.13        500.000        2632.40     
  1107.98        500.000        2632.45     
  1106.83        500.000        2632.45     
  1105.68        500.000        2632.48     
  1104.53        500.000        2632.53     
  1103.38        500.000        2632.58     
  1102.23        500.000        2632.63     
  1101.09        500.000        2632.68     
  1099.94        500.000        2632.73     
  1098.79        500.000        2632.77     
  1097.64        500.000        2632.82     
  1096.49        500.000        2632.87     
  1095.34        500.000        2632.92     
  1094.19        500.000        2632.97     
  1093.04        500.000        2633.02     
  1091.90        500.000        2633.07     
  1090.75        500.000        2633.12     
  1089.60        500.000        2633.17     
  1088.45        500.000        2633.20     
  1087.30        500.000        2633.26     
  1086.15        500.000        2633.38     
  1085.00        500.000        2633.43     
  1083.85        500.000        2633.40     
  1082.71        500.000        2633.46     
  1081.56        500.000        2633.49     
  1080.41        500.000        2633.55     
  1079.26        500.000        2633.68     
  1078.11        500.000        2633.65     
  1076.96        500.000        2633.69     
  1075.81        500.000        2633.74     
  1074.67        500.000        2633.79     
  1073.52        500.000        2633.84     
  1072.37        500.000        2633.89     
  1071.22        500.000        2633.93     
  1070.07        500.000        2633.98     
  1068.92        500.000        2634.03     
  1067.77        500.000        2634.08     
  1066.62        500.000        2634.11     
  1065.48        500.000        2634.16     
  1064.33        500.000        2634.20     
  1063.18        500.000        2634.23     
  1062.03        500.000        2634.25     
  1060.88        500.000        2634.27     
  1059.73        500.000        2634.28     
  1058.58        500.000        2634.21     
  1057.43        500.000        2634.20     
  1056.29        500.000        2634.25     
  1055.14        500.000        2634.18     
  1053.99        500.000        2634.01     
  1052.84        500.000        2633.86     
  1051.69        500.000        2633.80     
  1050.54        500.000        2633.50     
  1049.39        500.000        2633.39     
  1048.25        500.000        2633.34     
  1047.10        500.000        2633.30     
  1045.95        500.000        2633.27     
  1044.80        500.000        2633.24     
  1043.65        500.000        2633.24     
  1042.50        500.000        2633.24     
  1041.35        500.000        2633.24     
  1040.20        500.000        2633.24     
  1039.06        500.000        2632.46     
  1037.91        500.000        2632.51     
  1036.76        500.000        2632.56     
  1035.61        500.000        2632.61     
  1034.46        500.000        2632.66     
  1033.31        500.000        2632.71     
  1032.16        500.000        2633.30     
  1031.01        500.000        2632.80     
  1029.87        500.000        2632.85     
  1028.72        500.000        2632.90     
  1027.57        500.000        2632.95     
  1026.42        500.000        2633.00     
  1025.27        500.000        2633.04     
  1024.12        500.000        2633.09     
  1022.97        500.000        2633.14     
  1021.83        500.000        2633.19     
  1020.68        500.000        2633.24     
  1019.53        500.000        2633.28     
  1018.38        500.000        2633.33     
  1017.23        500.000        2633.38     
  1016.08        500.000        2633.43     
  1014.93        500.000        2633.48     
  1013.78        500.000        2633.53     
  1012.64        500.000        2633.57     
  1011.49        500.000        2633.62     
  1010.34        500.000        2633.67     
  1009.19        500.000        2633.72     
  1008.04        500.000        2633.77     
  1006.89        500.000        2633.81     
  1005.74        500.000        2633.86     
  1004.59        500.000        2633.91     
  1003.45        500.000        2633.96     
  1002.30        500.000        2634.01     
  1001.15        500.000        2634.06     
  1000.00        500.000        2634.10     
