|6.6.6
Archiving\03_Data\eqfracLP/QFM_m0.75/KHA22/KHA22_6.tab                    
           1
T(K)    
  0.000000000000000E+000
  0.000000000000000E+000
           0
           3
T(K)           P(bar)         rho,kg/m3     
  1548.08        500.000        3215.97     
  1546.71        500.000        3216.52     
  1545.33        500.000        3218.55     
  1543.96        500.000        3214.60     
  1542.59        500.000        3221.11     
  1541.21        500.000        3219.34     
  1539.84        500.000        3219.81     
  1538.46        500.000        3219.79     
  1537.09        500.000        3220.52     
  1535.72        500.000        3220.59     
  1534.34        500.000        3220.60     
  1532.97        500.000        3222.02     
  1531.60        500.000        3220.70     
  1530.22        500.000        3221.48     
  1528.85        500.000        3222.56     
  1527.48        500.000        3221.81     
  1526.10        500.000        3222.37     
  1524.73        500.000        3220.91     
  1523.35        500.000        3222.77     
  1521.98        500.000        3224.04     
  1520.61        500.000        3223.44     
  1519.23        500.000        3223.63     
  1517.86        500.000        3224.51     
  1516.49        500.000        3227.11     
  1515.11        500.000        3297.42     
  1513.74        500.000        3223.87     
  1512.37        500.000        3224.72     
  1510.99        500.000        3225.53     
  1509.62        500.000        3225.28     
  1508.24        500.000        3226.01     
  1506.87        500.000        3226.04     
  1505.50        500.000        3226.96     
  1504.12        500.000        3226.75     
  1502.75        500.000        3226.99     
  1501.38        500.000        3228.02     
  1500.00        500.000        3227.13     
  1498.63        500.000        3227.38     
  1497.26        500.000        3230.09     
  1495.88        500.000        3247.48     
  1494.51        500.000        3229.14     
  1493.13        500.000        3228.73     
  1491.76        500.000        3229.07     
  1490.39        500.000        3229.84     
  1489.01        500.000        3230.51     
  1487.64        500.000        3231.29     
  1486.27        500.000        3230.51     
  1484.89        500.000        3231.07     
  1483.52        500.000        3232.07     
  1482.15        500.000        3232.51     
  1480.77        500.000        3231.81     
  1479.40        500.000        3232.73     
  1478.02        500.000        3235.81     
  1476.65        500.000        3233.71     
  1475.28        500.000        3233.47     
  1473.90        500.000        3233.67     
  1472.53        500.000        3233.83     
  1471.16        500.000        3235.00     
  1469.78        500.000        3234.50     
  1468.41        500.000        3235.85     
  1467.04        500.000        3235.53     
  1465.66        500.000        3236.57     
  1464.29        500.000        3236.81     
  1462.91        500.000        3237.17     
  1461.54        500.000        3237.20     
  1460.17        500.000        3237.95     
  1458.79        500.000        3237.83     
  1457.42        500.000        3238.58     
  1456.05        500.000        3239.22     
  1454.67        500.000        3222.40     
  1453.30        500.000        3224.90     
  1451.93        500.000        3222.13     
  1450.55        500.000        3218.27     
  1449.18        500.000        3218.91     
  1447.80        500.000        3220.10     
  1446.43        500.000        3221.59     
  1445.06        500.000        3222.53     
  1443.68        500.000        3223.45     
  1442.31        500.000        3224.10     
  1440.94        500.000        2715.66     
  1439.56        500.000        3225.91     
  1438.19        500.000        3226.37     
  1436.82        500.000        3227.49     
  1435.44        500.000        3228.29     
  1434.07        500.000        3229.09     
  1432.69        500.000        3230.06     
  1431.32        500.000        3230.69     
  1429.95        500.000        3231.83     
  1428.57        500.000        3232.39     
  1427.20        500.000        3233.21     
  1425.83        500.000        3234.12     
  1424.45        500.000        3234.80     
  1423.08        500.000        3236.18     
  1421.71        500.000        3236.61     
  1420.33        500.000        3237.67     
  1418.96        500.000        3238.49     
  1417.58        500.000        3239.30     
  1416.21        500.000        3240.13     
  1414.84        500.000        3240.97     
  1413.46        500.000        3152.72     
  1412.09        500.000        3076.30     
  1410.72        500.000        3077.21     
  1409.34        500.000        3078.07     
  1407.97        500.000        3078.87     
  1406.60        500.000        3079.80     
  1405.22        500.000        3080.66     
  1403.85        500.000        3081.45     
  1402.47        500.000        3082.33     
  1401.10        500.000        3083.25     
  1399.73        500.000        3084.06     
  1398.35        500.000        3084.96     
  1396.98        500.000        3085.86     
  1395.61        500.000        3086.78     
  1394.23        500.000        3087.57     
  1392.86        500.000        3088.37     
  1391.49        500.000        3089.22     
  1390.11        500.000        3090.07     
  1388.74        500.000        3091.07     
  1387.36        500.000        3091.92     
  1385.99        500.000        3092.40     
  1384.62        500.000        3093.75     
  1383.24        500.000        3094.57     
  1381.87        500.000        3095.52     
  1380.50        500.000        3096.25     
  1379.12        500.000        3097.29     
  1377.75        500.000        3097.88     
  1376.38        500.000        3098.79     
  1375.00        500.000        3099.71     
  1373.63        500.000        3100.76     
  1372.25        500.000        3101.55     
  1370.88        500.000        3102.25     
  1369.51        500.000        3103.38     
  1368.13        500.000        3104.12     
  1366.76        500.000        3104.90     
  1365.39        500.000        3105.84     
  1364.01        500.000        3106.69     
  1362.64        500.000        3107.58     
  1361.27        500.000        3108.52     
  1359.89        500.000        3109.55     
  1358.52        500.000        3109.99     
  1357.14        500.000        3111.25     
  1355.77        500.000        3112.08     
  1354.40        500.000        3112.87     
  1353.02        500.000        3113.85     
  1351.65        500.000        3114.52     
  1350.28        500.000        3115.58     
  1348.90        500.000        3116.43     
  1347.53        500.000        3117.33     
  1346.16        500.000        3118.29     
  1344.78        500.000        3119.05     
  1343.41        500.000        3119.84     
  1342.03        500.000        3120.84     
  1340.66        500.000        3121.63     
  1339.29        500.000        3122.38     
  1337.91        500.000        3124.45     
  1336.54        500.000        3133.39     
  1335.17        500.000        3134.66     
  1333.79        500.000        3135.53     
  1332.42        500.000        3136.64     
  1331.05        500.000        3137.81     
  1329.67        500.000        3138.89     
  1328.30        500.000        3140.10     
  1326.92        500.000        3140.88     
  1325.55        500.000        3142.20     
  1324.18        500.000        3143.08     
  1322.80        500.000        3143.83     
  1321.43        500.000        3145.19     
  1320.06        500.000        3146.16     
  1318.68        500.000        3145.73     
  1317.31        500.000        3149.61     
  1315.94        500.000        3149.34     
  1314.56        500.000        3150.23     
  1313.19        500.000        3151.48     
  1311.81        500.000        3152.53     
  1310.44        500.000        3153.39     
  1309.07        500.000        3154.64     
  1307.69        500.000        3155.34     
  1306.32        500.000        3156.34     
  1304.95        500.000        3157.58     
  1303.57        500.000        3159.98     
  1302.20        500.000        3158.01     
  1300.83        500.000        3160.55     
  1299.45        500.000        3161.52     
  1298.08        500.000        3162.59     
  1296.70        500.000        3163.70     
  1295.33        500.000        3164.23     
  1293.96        500.000        3165.37     
  1292.58        500.000        3166.22     
  1291.21        500.000        2847.82     
  1289.84        500.000        2750.15     
  1288.46        500.000        2753.68     
  1287.09        500.000        2757.42     
  1285.72        500.000        2760.54     
  1284.34        500.000        2763.69     
  1282.97        500.000        2766.88     
  1281.59        500.000        2769.97     
  1280.22        500.000        2772.89     
  1278.85        500.000        2775.81     
  1277.47        500.000        2778.67     
  1276.10        500.000        2781.48     
  1274.73        500.000        2784.13     
  1273.35        500.000        2786.87     
  1271.98        500.000        2789.51     
  1270.61        500.000        2792.04     
  1269.23        500.000        2794.56     
  1267.86        500.000        2797.00     
  1266.49        500.000        2799.50     
  1265.11        500.000        2801.81     
  1263.74        500.000        2804.07     
  1262.36        500.000        2806.47     
  1260.99        500.000        2808.56     
  1259.62        500.000        2810.26     
  1258.24        500.000        2813.16     
  1256.87        500.000        2815.01     
  1255.50        500.000        2816.98     
  1254.12        500.000        2818.98     
  1252.75        500.000        2820.85     
  1251.38        500.000        2822.77     
  1250.00        500.000        2829.71     
  1248.63        500.000        2848.73     
  1247.25        500.000        2833.34     
  1245.88        500.000        3869.49     
  1244.51        500.000        2836.19     
  1243.13        500.000        2845.72     
  1241.76        500.000        2800.21     
  1240.39        500.000        2937.81     
  1239.01        500.000        3067.34     
  1237.64        500.000        2863.83     
  1236.27        500.000        2844.69     
  1234.89        500.000        2854.38     
  1233.52        500.000        2863.85     
  1232.14        500.000        2788.56     
  1230.77        500.000        3096.35     
  1229.40        500.000        2867.25     
  1228.02        500.000        2822.16     
  1226.65        500.000        2739.70     
  1225.28        500.000        2839.15     
  1223.90        500.000        2843.26     
  1222.53        500.000        2864.59     
  1221.16        500.000        2914.42     
  1219.78        500.000        2888.91     
  1218.41        500.000        2864.21     
  1217.03        500.000        2710.90     
  1215.66        500.000        2849.69     
  1214.29        500.000        2828.50     
  1212.91        500.000        2829.44     
  1211.54        500.000        2782.20     
  1210.17        500.000        2871.84     
  1208.79        500.000        2507.11     
  1207.42        500.000        2921.56     
  1206.05        500.000        2821.73     
  1204.67        500.000        2763.51     
  1203.30        500.000        2923.38     
  1201.92        500.000        2806.62     
  1200.55        500.000        2802.13     
  1199.18        500.000        2765.18     
  1197.80        500.000        3697.15     
  1196.43        500.000        2836.28     
  1195.06        500.000        2783.01     
  1193.68        500.000        2965.80     
  1192.31        500.000        2783.47     
  1190.94        500.000        2733.27     
  1189.56        500.000        3087.98     
  1188.19        500.000        2656.58     
  1186.81        500.000        2785.62     
  1185.44        500.000        2645.06     
  1184.07        500.000        2636.43     
  1182.69        500.000        2636.45     
  1181.32        500.000        2636.48     
  1179.95        500.000        2636.51     
  1178.57        500.000        2636.54     
  1177.20        500.000        2636.57     
  1175.83        500.000        2636.60     
  1174.45        500.000        2636.63     
  1173.08        500.000        2636.67     
  1171.70        500.000        2636.70     
  1170.33        500.000        2636.74     
  1168.96        500.000        2636.78     
  1167.58        500.000        2636.81     
  1166.21        500.000        2636.90     
  1164.84        500.000        2636.90     
  1163.46        500.000        2636.93     
  1162.09        500.000        2636.97     
  1160.72        500.000        2637.01     
  1159.34        500.000        2637.05     
  1157.97        500.000        2637.10     
  1156.59        500.000        2637.14     
  1155.22        500.000        2637.18     
  1153.85        500.000        2637.22     
  1152.47        500.000        2637.26     
  1151.10        500.000        2637.31     
  1149.73        500.000        2637.35     
  1148.35        500.000        2637.39     
  1146.98        500.000        2637.43     
  1145.61        500.000        2637.48     
  1144.23        500.000        2637.52     
  1142.86        500.000        2637.57     
  1141.48        500.000        2637.61     
  1140.11        500.000        2637.67     
  1138.74        500.000        2637.72     
  1137.36        500.000        2637.77     
  1135.99        500.000        2637.80     
  1134.62        500.000        2637.84     
  1133.24        500.000        2637.88     
  1131.87        500.000        2637.95     
  1130.50        500.000        2637.97     
  1129.12        500.000        2638.02     
  1127.75        500.000        2638.06     
  1126.37        500.000        2638.11     
  1125.00        500.000        2638.16     
  1123.63        500.000        2638.21     
  1122.25        500.000        2638.26     
  1120.88        500.000        2638.30     
  1119.51        500.000        2638.35     
  1118.13        500.000        2638.40     
  1116.76        500.000        2638.44     
  1115.39        500.000        2638.49     
  1114.01        500.000        2638.54     
  1112.64        500.000        2638.59     
  1111.26        500.000        2638.64     
  1109.89        500.000        2638.69     
  1108.52        500.000        2638.73     
  1107.14        500.000        2638.78     
  1105.77        500.000        2638.83     
  1104.40        500.000        2638.88     
  1103.02        500.000        2638.93     
  1101.65        500.000        2638.98     
  1100.28        500.000        2639.03     
  1098.90        500.000        2639.08     
  1097.53        500.000        2639.14     
  1096.15        500.000        2639.19     
  1094.78        500.000        2638.96     
  1093.41        500.000        2639.28     
  1092.03        500.000        2639.33     
  1090.66        500.000        2639.37     
  1089.29        500.000        2639.42     
  1087.91        500.000        2639.47     
  1086.54        500.000        2639.53     
  1085.17        500.000        2639.58     
  1083.79        500.000        2639.50     
  1082.42        500.000        2639.68     
  1081.04        500.000        2639.73     
  1079.67        500.000        2639.78     
  1078.30        500.000        2639.83     
  1076.92        500.000        2639.88     
  1075.55        500.000        2639.93     
  1074.18        500.000        2639.98     
  1072.80        500.000        2640.03     
  1071.43        500.000        2640.08     
  1070.06        500.000        2640.13     
  1068.68        500.000        2640.18     
  1067.31        500.000        2640.23     
  1065.93        500.000        2640.28     
  1064.56        500.000        2640.33     
  1063.19        500.000        2640.38     
  1061.81        500.000        2640.43     
  1060.44        500.000        2640.48     
  1059.07        500.000        2640.53     
  1057.69        500.000        2640.58     
  1056.32        500.000        2640.63     
  1054.95        500.000        2640.69     
  1053.57        500.000        2640.74     
  1052.20        500.000        2640.79     
  1050.82        500.000        2640.83     
  1049.45        500.000        2640.89     
  1048.08        500.000        2640.94     
  1046.70        500.000        2640.99     
  1045.33        500.000        2641.04     
  1043.96        500.000        2641.09     
  1042.58        500.000        2641.14     
  1041.21        500.000        2641.19     
  1039.84        500.000        2641.24     
  1038.46        500.000        2641.30     
  1037.09        500.000        2641.35     
  1035.71        500.000        2641.40     
  1034.34        500.000        2641.45     
  1032.97        500.000        2641.50     
  1031.59        500.000        2641.55     
  1030.22        500.000        2641.60     
  1028.85        500.000        2641.65     
  1027.47        500.000        2641.70     
  1026.10        500.000        2641.78     
  1024.73        500.000        2641.80     
  1023.35        500.000        2641.86     
  1021.98        500.000        2641.90     
  1020.60        500.000        2641.96     
  1019.23        500.000        2642.01     
  1017.86        500.000        2642.06     
  1016.48        500.000        2642.12     
  1015.11        500.000        2642.17     
  1013.74        500.000        2642.21     
  1012.36        500.000        2642.26     
  1010.99        500.000        2642.32     
  1009.62        500.000        2642.36     
  1008.24        500.000        2642.42     
  1006.87        500.000        2642.54     
  1005.49        500.000        2642.52     
  1004.12        500.000        2642.57     
  1002.75        500.000        2642.63     
  1001.37        500.000        2642.68     
  1000.00        500.000        2642.73     
