|6.6.6
Archiving\03_Data\DeqLP/QFM_m4.75/K22/K22_6.tab                       
           1
T(K)    
  0.000000000000000E+000
  0.000000000000000E+000
           0
           3
T(K)           P(bar)         rho,kg/m3     
  2000.00        500.000        7300.94     
  1996.79        500.000        7301.39     
  1993.59        500.000        7301.89     
  1990.38        500.000        7302.45     
  1987.18        500.000        7303.05     
  1983.97        500.000        7303.70     
  1980.77        500.000        7304.38     
  1977.56        500.000        7305.10     
  1974.36        500.000        7305.86     
  1971.15        500.000        7306.66     
  1967.95        500.000        7307.48     
  1964.74        500.000        7308.33     
  1961.54        500.000        7309.21     
  1958.33        500.000        7310.10     
  1955.13        500.000        7311.02     
  1951.92        500.000        7311.96     
  1948.72        500.000        7312.91     
  1945.51        500.000        7313.92     
  1942.31        500.000        5938.08     
  1939.10        500.000        4631.49     
  1935.90        500.000        4154.09     
  1932.69        500.000        3916.26     
  1929.49        500.000        3768.09     
  1926.28        500.000        3666.98     
  1923.08        500.000        3593.65     
  1919.87        500.000        3542.46     
  1916.67        500.000        3501.57     
  1913.46        500.000        3468.18     
  1910.26        500.000        3440.42     
  1907.05        500.000        3417.00     
  1903.85        500.000        3396.98     
  1900.64        500.000        3379.68     
  1897.44        500.000        3364.60     
  1894.23        500.000        3352.21     
  1891.03        500.000        3341.15     
  1887.82        500.000        3331.23     
  1884.62        500.000        3322.29     
  1881.41        500.000        3314.59     
  1878.21        500.000        3308.02     
  1875.00        500.000        3302.10     
  1871.79        500.000        3296.67     
  1868.59        500.000        3291.79     
  1865.38        500.000        3287.28     
  1862.18        500.000        3283.09     
  1858.97        500.000        3279.21     
  1855.77        500.000        3275.59     
  1852.56        500.000        3272.23     
  1849.36        500.000        3269.09     
  1846.15        500.000        3266.15     
  1842.95        500.000        3263.41     
  1839.74        500.000        3260.83     
  1836.54        500.000        3258.40     
  1833.33        500.000        3256.12     
  1830.13        500.000        3253.97     
  1826.92        500.000        3251.94     
  1823.72        500.000        3250.03     
  1820.51        500.000        3248.22     
  1817.31        500.000        3246.45     
  1814.10        500.000        3244.78     
  1810.90        500.000        3243.19     
  1807.69        500.000        3241.69     
  1804.49        500.000        3240.26     
  1801.28        500.000        3238.90     
  1798.08        500.000        3237.62     
  1794.87        500.000        3236.40     
  1791.67        500.000        3235.18     
  1788.46        500.000        3234.02     
  1785.26        500.000        3232.91     
  1782.05        500.000        3231.86     
  1778.85        500.000        3230.82     
  1775.64        500.000        3229.96     
  1772.44        500.000        3231.50     
  1769.23        500.000        3233.09     
  1766.03        500.000        3234.71     
  1762.82        500.000        3236.30     
  1759.62        500.000        3237.86     
  1756.41        500.000        3239.40     
  1753.21        500.000        3240.90     
  1750.00        500.000        3242.38     
  1746.79        500.000        3243.84     
  1743.59        500.000        3245.27     
  1740.38        500.000        3246.71     
  1737.18        500.000        3248.12     
  1733.97        500.000        3249.52     
  1730.77        500.000        3250.89     
  1727.56        500.000        3252.25     
  1724.36        500.000        3253.58     
  1721.15        500.000        3254.90     
  1717.95        500.000        3256.19     
  1714.74        500.000        3257.45     
  1711.54        500.000        3258.70     
  1708.33        500.000        3259.92     
  1705.13        500.000        3261.13     
  1701.92        500.000        3262.33     
  1698.72        500.000        3263.52     
  1695.51        500.000        3264.69     
  1692.31        500.000        3265.84     
  1689.10        500.000        3266.94     
  1685.90        500.000        3268.03     
  1682.69        500.000        3269.11     
  1679.49        500.000        3270.18     
  1676.28        500.000        3271.24     
  1673.08        500.000        3272.28     
  1669.87        500.000        3273.32     
  1666.67        500.000        3274.35     
  1663.46        500.000        3275.29     
  1660.26        500.000        3276.23     
  1657.05        500.000        3277.15     
  1653.85        500.000        3278.07     
  1650.64        500.000        3278.99     
  1647.44        500.000        3279.89     
  1644.23        500.000        3280.79     
  1641.03        500.000        3281.69     
  1637.82        500.000        3282.53     
  1634.62        500.000        3283.36     
  1631.41        500.000        3284.19     
  1628.21        500.000        3285.02     
  1625.00        500.000        3285.82     
  1621.79        500.000        3286.61     
  1618.59        500.000        3287.19     
  1615.38        500.000        3286.26     
  1612.18        500.000        3285.63     
  1608.97        500.000        3285.04     
  1605.77        500.000        3284.48     
  1602.56        500.000        3283.94     
  1599.36        500.000        3283.44     
  1596.15        500.000        3282.96     
  1592.95        500.000        3282.51     
  1589.74        500.000        3282.08     
  1586.54        500.000        3281.92     
  1583.33        500.000        3281.78     
  1580.13        500.000        3281.65     
  1576.92        500.000        3281.53     
  1573.72        500.000        3281.42     
  1570.51        500.000        3281.33     
  1567.31        500.000        3281.24     
  1564.10        500.000        3281.16     
  1560.90        500.000        3281.22     
  1557.69        500.000        3281.28     
  1554.49        500.000        3281.34     
  1551.28        500.000        3281.42     
  1548.08        500.000        3281.49     
  1544.87        500.000        3281.58     
  1541.67        500.000        3281.66     
  1538.46        500.000        3281.76     
  1535.26        500.000        3281.91     
  1532.05        500.000        3282.07     
  1528.85        500.000        3282.23     
  1525.64        500.000        3282.39     
  1522.44        500.000        3282.56     
  1519.23        500.000        3282.73     
  1516.03        500.000        3282.91     
  1512.82        500.000        3283.09     
  1509.62        500.000        3283.30     
  1506.41        500.000        3283.51     
  1503.21        500.000        3283.73     
  1500.00        500.000        3283.95     
  1496.79        500.000        3284.17     
  1493.59        500.000        3284.40     
  1490.38        500.000        3284.62     
  1487.18        500.000        3284.85     
  1483.97        500.000        3285.10     
  1480.77        500.000        3285.35     
  1477.56        500.000        3285.62     
  1474.36        500.000        3285.93     
  1471.15        500.000        3286.27     
  1467.95        500.000        3286.61     
  1464.74        500.000        3286.96     
  1461.54        500.000        3287.30     
  1458.33        500.000        3287.68     
  1455.13        500.000        3288.06     
  1451.92        500.000        3288.50     
  1448.72        500.000        3288.74     
  1445.51        500.000        3289.18     
  1442.31        500.000        3289.62     
  1439.10        500.000        3290.06     
  1435.90        500.000        3290.22     
  1432.69        500.000        3290.60     
  1429.49        500.000        3290.55     
  1426.28        500.000        3290.99     
  1423.08        500.000        3288.96     
  1419.87        500.000        3289.40     
  1416.67        500.000        3289.84     
  1413.46        500.000        3290.28     
  1410.26        500.000        3286.81     
  1407.05        500.000        3287.25     
  1403.85        500.000        3287.68     
  1400.64        500.000        3288.11     
  1397.44        500.000        3288.55     
  1394.23        500.000        3288.98     
  1391.03        500.000        3289.41     
  1387.82        500.000        3289.85     
  1384.62        500.000        3284.63     
  1381.41        500.000        3285.06     
  1378.21        500.000        3285.49     
  1375.00        500.000        3285.91     
  1371.79        500.000        3286.34     
  1368.59        500.000        3286.77     
  1365.38        500.000        3287.20     
  1362.18        500.000        3287.63     
  1358.97        500.000        3283.75     
  1355.77        500.000        3284.18     
  1352.56        500.000        3284.60     
  1349.36        500.000        3285.03     
  1346.15        500.000        3285.45     
  1342.95        500.000        3285.88     
  1339.74        500.000        3286.30     
  1336.54        500.000        3286.72     
  1333.33        500.000        3283.56     
  1330.13        500.000        3283.98     
  1326.92        500.000        3284.40     
  1323.72        500.000        3284.82     
  1320.51        500.000        3285.24     
  1317.31        500.000        3285.66     
  1314.10        500.000        3286.08     
  1310.90        500.000        3286.50     
  1307.69        500.000        3283.84     
  1304.49        500.000        3284.26     
  1301.28        500.000        3284.68     
  1298.08        500.000        3285.09     
  1294.87        500.000        3284.14     
  1291.67        500.000        3284.55     
  1288.46        500.000        3284.32     
  1285.26        500.000        3284.43     
  1282.05        500.000        3275.10     
  1278.85        500.000        3275.51     
  1275.64        500.000        3275.92     
  1272.44        500.000        3276.33     
  1269.23        500.000        3276.74     
  1266.03        500.000        3277.15     
  1262.82        500.000        3277.56     
  1259.62        500.000        3277.97     
  1256.41        500.000        3278.01     
  1253.21        500.000        3278.42     
  1250.00        500.000        3278.83     
  1246.79        500.000        3279.24     
  1243.59        500.000        3279.65     
  1240.38        500.000        3280.06     
  1237.18        500.000        3280.47     
  1233.97        500.000        3280.87     
  1230.77        500.000        3280.94     
  1227.56        500.000        3281.35     
  1224.36        500.000        3281.75     
  1221.15        500.000        3282.16     
  1217.95        500.000        3282.57     
  1214.74        500.000        3282.97     
  1211.54        500.000        3283.38     
  1208.33        500.000        3283.78     
  1205.13        500.000        3283.89     
  1201.92        500.000        3284.29     
  1198.72        500.000        3284.70     
  1195.51        500.000        3285.10     
  1192.31        500.000        3285.51     
  1189.10        500.000        3285.91     
  1185.90        500.000        3286.31     
  1182.69        500.000        3286.72     
  1179.49        500.000        3286.84     
  1176.28        500.000        3287.24     
  1173.08        500.000        3287.64     
  1169.87        500.000        3288.04     
  1166.67        500.000        3288.45     
  1163.46        500.000        3288.85     
  1160.26        500.000        3289.25     
  1157.05        500.000        3289.65     
  1153.85        500.000        3289.80     
  1150.64        500.000        3290.20     
  1147.44        500.000        3290.60     
  1144.23        500.000        3291.00     
  1141.03        500.000        3291.40     
  1137.82        500.000        3291.80     
  1134.62        500.000        3292.20     
  1131.41        500.000        3292.60     
  1128.21        500.000        3292.77     
  1125.00        500.000        3293.17     
  1121.79        500.000        3293.57     
  1118.59        500.000        3293.97     
  1115.38        500.000        3294.36     
  1112.18        500.000        3294.76     
  1108.97        500.000        3295.16     
  1105.77        500.000        3295.56     
  1102.56        500.000        3295.76     
  1099.36        500.000        3296.16     
  1096.15        500.000        3296.56     
  1092.95        500.000        3296.95     
  1089.74        500.000        3297.35     
  1086.54        500.000        3297.74     
  1083.33        500.000        3298.14     
  1080.13        500.000        3298.53     
  1076.92        500.000        3298.77     
  1073.72        500.000        3299.16     
  1070.51        500.000        3299.55     
  1067.31        500.000        3299.95     
  1064.10        500.000        3300.34     
  1060.90        500.000        3300.73     
  1057.69        500.000        3301.13     
  1054.49        500.000        3301.52     
  1051.28        500.000        3301.79     
  1048.08        500.000        3302.18     
  1044.87        500.000        3302.57     
  1041.67        500.000        3302.96     
  1038.46        500.000        3303.35     
  1035.26        500.000        3303.75     
  1032.05        500.000        3304.14     
  1028.85        500.000        3304.53     
  1025.64        500.000        3304.83     
  1022.44        500.000        3305.22     
  1019.23        500.000        3305.61     
  1016.03        500.000        3306.00     
  1012.82        500.000        3306.39     
  1009.62        500.000        3306.77     
  1006.41        500.000        3307.16     
  1003.21        500.000        3307.55     
  1000.00        500.000        3307.89     
