|6.6.6
Archiving\03_Data\eqfrac/QFM_m1.25/YM20/YM20_6.tab                      
           1
T(K)    
  0.000000000000000E+000
  0.000000000000000E+000
           0
           3
T(K)           P(bar)         rho,kg/m3     
  1576.92        2500.00        3235.80     
  1575.47        2500.00        3236.83     
  1574.03        2500.00        3238.37     
  1572.58        2500.00        3239.99     
  1571.14        2500.00        3238.90     
  1569.69        2500.00        3240.11     
  1568.24        2500.00        3241.33     
  1566.80        2500.00        3239.23     
  1565.35        2500.00        3240.71     
  1563.91        2500.00        3241.34     
  1562.46        2500.00        3242.01     
  1561.01        2500.00        3242.22     
  1559.57        2500.00        3242.03     
  1558.12        2500.00        3241.32     
  1556.68        2500.00        3245.27     
  1555.23        2500.00        3243.95     
  1553.79        2500.00        3243.82     
  1552.34        2500.00        3244.69     
  1550.89        2500.00        3244.92     
  1549.45        2500.00        3245.17     
  1548.00        2500.00        3245.76     
  1546.56        2500.00        3246.02     
  1545.11        2500.00        3246.46     
  1543.66        2500.00        3246.99     
  1542.22        2500.00        3246.99     
  1540.77        2500.00        3247.72     
  1539.33        2500.00        3248.66     
  1537.88        2500.00        3248.51     
  1536.43        2500.00        3248.39     
  1534.99        2500.00        3249.49     
  1533.54        2500.00        2806.55     
  1532.10        2500.00        3249.63     
  1530.65        2500.00        3250.17     
  1529.20        2500.00        3250.93     
  1527.76        2500.00        3250.83     
  1526.31        2500.00        3251.56     
  1524.87        2500.00        3250.45     
  1523.42        2500.00        3252.19     
  1521.98        2500.00        3253.95     
  1520.53        2500.00        3250.46     
  1519.08        2500.00        3252.41     
  1517.64        2500.00        3255.05     
  1516.19        2500.00        3253.84     
  1514.75        2500.00        3254.82     
  1513.30        2500.00        3253.69     
  1511.85        2500.00        3255.19     
  1510.41        2500.00        3255.28     
  1508.96        2500.00        3255.63     
  1507.52        2500.00        3255.89     
  1506.07        2500.00        3256.61     
  1504.62        2500.00        3256.77     
  1503.18        2500.00        3256.67     
  1501.73        2500.00        3256.91     
  1500.29        2500.00        3257.45     
  1498.84        2500.00        3257.04     
  1497.39        2500.00        2795.56     
  1495.95        2500.00        3258.21     
  1494.50        2500.00        3258.41     
  1493.06        2500.00        3264.51     
  1491.61        2500.00        3258.17     
  1490.17        2500.00        3255.77     
  1488.72        2500.00        3247.59     
  1487.27        2500.00        3239.33     
  1485.83        2500.00        3239.97     
  1484.38        2500.00        3237.01     
  1482.94        2500.00        3233.43     
  1481.49        2500.00        3234.33     
  1480.04        2500.00        3235.33     
  1478.60        2500.00        3236.83     
  1477.15        2500.00        3237.96     
  1475.71        2500.00        3241.96     
  1474.26        2500.00        3242.60     
  1472.81        2500.00        3243.99     
  1471.37        2500.00        3245.29     
  1469.92        2500.00        3245.27     
  1468.48        2500.00        3246.09     
  1467.03        2500.00        3247.17     
  1465.58        2500.00        3248.06     
  1464.14        2500.00        3249.15     
  1462.69        2500.00        3249.74     
  1461.25        2500.00        3250.56     
  1459.80        2500.00        3251.25     
  1458.35        2500.00        3253.72     
  1456.91        2500.00        3253.49     
  1455.46        2500.00        3255.07     
  1454.02        2500.00        3255.09     
  1452.57        2500.00        3256.09     
  1451.13        2500.00        3257.11     
  1449.68        2500.00        3259.10     
  1448.23        2500.00        3258.87     
  1446.79        2500.00        3259.87     
  1445.34        2500.00        3260.30     
  1443.90        2500.00        3262.20     
  1442.45        2500.00        3265.26     
  1441.00        2500.00        3262.70     
  1439.56        2500.00        3264.02     
  1438.11        2500.00        3265.36     
  1436.67        2500.00        3266.52     
  1435.22        2500.00        3102.02     
  1433.77        2500.00        3094.56     
  1432.33        2500.00        3095.92     
  1430.88        2500.00        3097.14     
  1429.44        2500.00        3098.48     
  1427.99        2500.00        3099.68     
  1426.54        2500.00        3100.89     
  1425.10        2500.00        3102.46     
  1423.65        2500.00        3103.51     
  1422.21        2500.00        3104.49     
  1420.76        2500.00        3106.14     
  1419.32        2500.00        3107.32     
  1417.87        2500.00        3108.92     
  1416.42        2500.00        3110.11     
  1414.98        2500.00        3111.41     
  1413.53        2500.00        3112.61     
  1412.09        2500.00        3113.78     
  1410.64        2500.00        3115.05     
  1409.19        2500.00        3116.56     
  1407.75        2500.00        3117.65     
  1406.30        2500.00        3119.20     
  1404.86        2500.00        3120.52     
  1403.41        2500.00        3121.88     
  1401.96        2500.00        3123.29     
  1400.52        2500.00        3124.51     
  1399.07        2500.00        3125.95     
  1397.63        2500.00        3127.25     
  1396.18        2500.00        3128.50     
  1394.73        2500.00        3129.57     
  1393.29        2500.00        3131.27     
  1391.84        2500.00        3132.64     
  1390.40        2500.00        3133.93     
  1388.95        2500.00        3135.41     
  1387.51        2500.00        3136.69     
  1386.06        2500.00        3138.24     
  1384.61        2500.00        3139.51     
  1383.17        2500.00        3140.86     
  1381.72        2500.00        3142.39     
  1380.28        2500.00        3143.58     
  1378.83        2500.00        3145.10     
  1377.38        2500.00        3146.24     
  1375.94        2500.00        3147.66     
  1374.49        2500.00        3155.91     
  1373.05        2500.00        3144.40     
  1371.60        2500.00        3151.59     
  1370.15        2500.00        3153.19     
  1368.71        2500.00        3161.93     
  1367.26        2500.00        3149.22     
  1365.82        2500.00        3157.39     
  1364.37        2500.00        3158.63     
  1362.92        2500.00        3160.45     
  1361.48        2500.00        3161.65     
  1360.03        2500.00        3162.93     
  1358.59        2500.00        3164.40     
  1357.14        2500.00        3165.50     
  1355.70        2500.00        3167.34     
  1354.25        2500.00        3168.17     
  1352.80        2500.00        3169.64     
  1351.36        2500.00        3171.26     
  1349.91        2500.00        3172.47     
  1348.47        2500.00        3173.75     
  1347.02        2500.00        3175.05     
  1345.57        2500.00        3175.71     
  1344.13        2500.00        3178.29     
  1342.68        2500.00        3179.11     
  1341.24        2500.00        3180.36     
  1339.79        2500.00        3181.73     
  1338.34        2500.00        3182.97     
  1336.90        2500.00        3184.26     
  1335.45        2500.00        3185.71     
  1334.01        2500.00        3186.56     
  1332.56        2500.00        3188.03     
  1331.11        2500.00        3189.24     
  1329.67        2500.00        3190.91     
  1328.22        2500.00        3191.66     
  1326.78        2500.00        3192.88     
  1325.33        2500.00        3194.01     
  1323.88        2500.00        3195.27     
  1322.44        2500.00        3196.42     
  1320.99        2500.00        3197.89     
  1319.55        2500.00        3198.59     
  1318.10        2500.00        3199.77     
  1316.66        2500.00        3201.13     
  1315.21        2500.00        3201.86     
  1313.76        2500.00        3203.16     
  1312.32        2500.00        3203.98     
  1310.87        2500.00        2842.53     
  1309.43        2500.00        2773.09     
  1307.98        2500.00        2776.02     
  1306.53        2500.00        2778.52     
  1305.09        2500.00        2781.68     
  1303.64        2500.00        2784.49     
  1302.20        2500.00        2787.29     
  1300.75        2500.00        2789.95     
  1299.30        2500.00        2792.39     
  1297.86        2500.00        2794.98     
  1296.41        2500.00        2797.64     
  1294.97        2500.00        2800.15     
  1293.52        2500.00        2802.78     
  1292.07        2500.00        2822.28     
  1290.63        2500.00        2841.23     
  1289.18        2500.00        2840.76     
  1287.74        2500.00        2840.27     
  1286.29        2500.00        2839.30     
  1284.85        2500.00        2837.13     
  1283.40        2500.00        2841.66     
  1281.95        2500.00        2839.66     
  1280.51        2500.00        2837.94     
  1279.06        2500.00        2830.38     
  1277.62        2500.00        2877.23     
  1276.17        2500.00        2830.79     
  1274.72        2500.00        2835.05     
  1273.28        2500.00        2842.09     
  1271.83        2500.00        2845.72     
  1270.39        2500.00        2833.70     
  1268.94        2500.00        2850.19     
  1267.49        2500.00        2831.69     
  1266.05        2500.00        4512.22     
  1264.60        2500.00        3204.78     
  1263.16        2500.00        2625.85     
  1261.71        2500.00        2870.45     
  1260.26        2500.00        2842.10     
  1258.82        2500.00        2829.53     
  1257.37        2500.00        2806.81     
  1255.93        2500.00        2777.01     
  1254.48        2500.00        2791.76     
  1253.04        2500.00        2730.90     
  1251.59        2500.00        2712.43     
  1250.14        2500.00        2741.23     
  1248.70        2500.00        2741.50     
  1247.25        2500.00        2741.76     
  1245.81        2500.00        2714.48     
  1244.36        2500.00        2742.32     
  1242.91        2500.00        2742.60     
  1241.47        2500.00        2743.30     
  1240.02        2500.00        2714.72     
  1238.58        2500.00        2714.43     
  1237.13        2500.00        2744.02     
  1235.68        2500.00        2744.28     
  1234.24        2500.00        2744.55     
  1232.79        2500.00        2745.09     
  1231.35        2500.00        2745.33     
  1229.90        2500.00        2745.29     
  1228.45        2500.00        2715.83     
  1227.01        2500.00        2716.03     
  1225.56        2500.00        2716.23     
  1224.12        2500.00        2716.43     
  1222.67        2500.00        2716.63     
  1221.22        2500.00        2716.83     
  1219.78        2500.00        2717.04     
  1218.33        2500.00        2717.24     
  1216.89        2500.00        2717.44     
  1215.44        2500.00        2717.64     
  1214.00        2500.00        2717.84     
  1212.55        2500.00        2718.05     
  1211.10        2500.00        2718.25     
  1209.66        2500.00        2718.45     
  1208.21        2500.00        2750.07     
  1206.77        2500.00        2750.01     
  1205.32        2500.00        2750.69     
  1203.87        2500.00        2719.27     
  1202.43        2500.00        2751.73     
  1200.98        2500.00        2752.66     
  1199.54        2500.00        2719.89     
  1198.09        2500.00        2719.59     
  1196.64        2500.00        2719.79     
  1195.20        2500.00        2720.00     
  1193.75        2500.00        2720.20     
  1192.31        2500.00        2720.40     
  1190.86        2500.00        2720.61     
  1189.41        2500.00        2720.81     
  1187.97        2500.00        2759.76     
  1186.52        2500.00        2762.81     
  1185.08        2500.00        2763.83     
  1183.63        2500.00        2764.86     
  1182.19        2500.00        2765.88     
  1180.74        2500.00        2766.92     
  1179.29        2500.00        2767.95     
  1177.85        2500.00        2768.99     
  1176.40        2500.00        2770.03     
  1174.96        2500.00        2771.08     
  1173.51        2500.00        2772.13     
  1172.06        2500.00        2723.49     
  1170.62        2500.00        2723.70     
  1169.17        2500.00        2723.90     
  1167.73        2500.00        2724.10     
  1166.28        2500.00        2724.30     
  1164.83        2500.00        2724.51     
  1163.39        2500.00        2724.71     
  1161.94        2500.00        2725.24     
  1160.50        2500.00        2725.45     
  1159.05        2500.00        2725.66     
  1157.60        2500.00        2725.87     
  1156.16        2500.00        2725.74     
  1154.71        2500.00        2725.92     
  1153.27        2500.00        2726.13     
  1151.82        2500.00        2725.80     
  1150.38        2500.00        2726.04     
  1148.93        2500.00        2726.22     
  1147.48        2500.00        2726.44     
  1146.04        2500.00        2726.65     
  1144.59        2500.00        2726.84     
  1143.15        2500.00        2727.03     
  1141.70        2500.00        2727.23     
  1140.25        2500.00        2727.43     
  1138.81        2500.00        2727.65     
  1137.36        2500.00        2727.88     
  1135.92        2500.00        2728.05     
  1134.47        2500.00        2728.26     
  1133.02        2500.00        2728.46     
  1131.58        2500.00        2728.67     
  1130.13        2500.00        2728.88     
  1128.69        2500.00        2729.07     
  1127.24        2500.00        2780.20     
  1125.79        2500.00        2780.67     
  1124.35        2500.00        2780.82     
  1122.90        2500.00        2781.04     
  1121.46        2500.00        2781.23     
  1120.01        2500.00        2730.30     
  1118.57        2500.00        2781.75     
  1117.12        2500.00        2781.96     
  1115.67        2500.00        2782.05     
  1114.23        2500.00        2782.37     
  1112.78        2500.00        2782.63     
  1111.34        2500.00        2782.61     
  1109.89        2500.00        2783.10     
  1108.44        2500.00        2783.32     
  1107.00        2500.00        2783.26     
  1105.55        2500.00        2783.48     
  1104.11        2500.00        2783.65     
  1102.66        2500.00        2783.76     
  1101.21        2500.00        2783.91     
  1099.77        2500.00        2784.09     
  1098.32        2500.00        2784.37     
  1096.88        2500.00        2784.76     
  1095.43        2500.00        2735.31     
  1093.98        2500.00        2785.36     
  1092.54        2500.00        2783.58     
  1091.09        2500.00        2785.83     
  1089.65        2500.00        2786.05     
  1088.20        2500.00        2785.83     
  1086.75        2500.00        2786.11     
  1085.31        2500.00        2786.65     
  1083.86        2500.00        2786.93     
  1082.42        2500.00        2786.99     
  1080.97        2500.00        2787.30     
  1079.53        2500.00        2787.58     
  1078.08        2500.00        2787.86     
  1076.63        2500.00        2735.37     
  1075.19        2500.00        2787.95     
  1073.74        2500.00        2788.42     
  1072.30        2500.00        2788.40     
  1070.85        2500.00        2788.70     
  1069.40        2500.00        2789.19     
  1067.96        2500.00        2788.98     
  1066.51        2500.00        2789.21     
  1065.07        2500.00        2789.43     
  1063.62        2500.00        2790.02     
  1062.17        2500.00        2790.27     
  1060.73        2500.00        2790.39     
  1059.28        2500.00        2790.50     
  1057.84        2500.00        2790.96     
  1056.39        2500.00        2790.64     
  1054.94        2500.00        2790.85     
  1053.50        2500.00        2791.15     
  1052.05        2500.00        2791.45     
  1050.61        2500.00        2791.73     
  1049.16        2500.00        2791.93     
  1047.72        2500.00        2792.14     
  1046.27        2500.00        2792.39     
  1044.82        2500.00        2792.86     
  1043.38        2500.00        2793.07     
  1041.93        2500.00        2793.25     
  1040.49        2500.00        2793.52     
  1039.04        2500.00        2793.79     
  1037.59        2500.00        2794.03     
  1036.15        2500.00        2794.01     
  1034.70        2500.00        2794.51     
  1033.26        2500.00        2794.98     
  1031.81        2500.00        2794.88     
  1030.36        2500.00        2795.15     
  1028.92        2500.00        2795.36     
  1027.47        2500.00        2795.68     
  1026.03        2500.00        2796.07     
  1024.58        2500.00        2793.85     
  1023.13        2500.00        2796.00     
  1021.69        2500.00        2795.75     
  1020.24        2500.00        2797.00     
  1018.80        2500.00        2797.27     
  1017.35        2500.00        2796.90     
  1015.91        2500.00        2797.72     
  1014.46        2500.00        2797.84     
  1013.01        2500.00        2798.04     
  1011.57        2500.00        2798.16     
  1010.12        2500.00        2798.79     
  1008.68        2500.00        2798.95     
  1007.23        2500.00        2799.18     
  1005.78        2500.00        2798.70     
  1004.34        2500.00        2799.73     
  1002.89        2500.00        2799.64     
  1001.45        2500.00        2799.40     
  1000.00        2500.00        2798.98     
