|6.6.6
Archiving\03_Data\eqLP/QFM_m5/KHA22/KHA22_6.tab                           
           1
T(K)    
  0.000000000000000E+000
  0.000000000000000E+000
           0
           3
T(K)           P(bar)         rho,kg/m3     
  2000.00        500.000        6922.21     
  1996.79        500.000        6925.98     
  1993.59        500.000        6929.72     
  1990.38        500.000        6933.43     
  1987.18        500.000        6937.10     
  1983.97        500.000        6940.74     
  1980.77        500.000        6944.34     
  1977.56        500.000        6947.92     
  1974.36        500.000        6951.46     
  1971.15        500.000        6954.92     
  1967.95        500.000        6958.35     
  1964.74        500.000        6961.75     
  1961.54        500.000        6965.12     
  1958.33        500.000        6968.47     
  1955.13        500.000        6971.79     
  1951.92        500.000        6975.09     
  1948.72        500.000        6978.36     
  1945.51        500.000        6981.55     
  1942.31        500.000        6984.73     
  1939.10        500.000        6987.88     
  1935.90        500.000        6991.00     
  1932.69        500.000        6994.11     
  1929.49        500.000        6997.19     
  1926.28        500.000        7000.26     
  1923.08        500.000        7003.30     
  1919.87        500.000        7006.29     
  1916.67        500.000        7009.25     
  1913.46        500.000        7012.20     
  1910.26        500.000        7015.13     
  1907.05        500.000        7018.03     
  1903.85        500.000        7020.91     
  1900.64        500.000        5607.06     
  1897.44        500.000        4776.66     
  1894.23        500.000        4557.17     
  1891.03        500.000        4389.28     
  1887.82        500.000        4256.73     
  1884.62        500.000        4149.45     
  1881.41        500.000        4060.86     
  1878.21        500.000        3986.49     
  1875.00        500.000        3923.19     
  1871.79        500.000        3868.66     
  1868.59        500.000        3825.02     
  1865.38        500.000        3786.29     
  1862.18        500.000        3751.70     
  1858.97        500.000        3720.63     
  1855.77        500.000        3692.56     
  1852.56        500.000        3667.10     
  1849.36        500.000        3643.90     
  1846.15        500.000        3622.67     
  1842.95        500.000        3603.83     
  1839.74        500.000        3586.82     
  1836.54        500.000        3571.33     
  1833.33        500.000        3556.94     
  1830.13        500.000        3543.81     
  1826.92        500.000        3531.53     
  1823.72        500.000        3520.05     
  1820.51        500.000        3509.27     
  1817.31        500.000        3499.33     
  1814.10        500.000        3489.95     
  1810.90        500.000        3481.10     
  1807.69        500.000        3472.73     
  1804.49        500.000        3464.80     
  1801.28        500.000        3457.29     
  1798.08        500.000        3450.15     
  1794.87        500.000        3443.38     
  1791.67        500.000        3436.94     
  1788.46        500.000        3430.79     
  1785.26        500.000        3424.94     
  1782.05        500.000        3419.34     
  1778.85        500.000        3413.99     
  1775.64        500.000        3408.88     
  1772.44        500.000        3403.98     
  1769.23        500.000        3399.30     
  1766.03        500.000        3394.69     
  1762.82        500.000        3390.28     
  1759.62        500.000        3386.04     
  1756.41        500.000        3381.97     
  1753.21        500.000        3378.06     
  1750.00        500.000        3374.29     
  1746.79        500.000        3370.67     
  1743.59        500.000        3367.18     
  1740.38        500.000        3363.69     
  1737.18        500.000        3360.33     
  1733.97        500.000        3357.08     
  1730.77        500.000        3353.96     
  1727.56        500.000        3350.94     
  1724.36        500.000        3348.02     
  1721.15        500.000        3345.21     
  1717.95        500.000        3342.49     
  1714.74        500.000        3339.76     
  1711.54        500.000        3337.11     
  1708.33        500.000        3334.56     
  1705.13        500.000        3332.09     
  1701.92        500.000        3329.69     
  1698.72        500.000        3327.38     
  1695.51        500.000        3325.14     
  1692.31        500.000        3322.97     
  1689.10        500.000        3320.83     
  1685.90        500.000        3318.76     
  1682.69        500.000        3316.71     
  1679.49        500.000        3314.74     
  1676.28        500.000        3312.83     
  1673.08        500.000        3310.97     
  1669.87        500.000        3309.17     
  1666.67        500.000        3307.42     
  1663.46        500.000        3305.71     
  1660.26        500.000        3304.05     
  1657.05        500.000        3302.43     
  1653.85        500.000        3300.86     
  1650.64        500.000        3299.34     
  1647.44        500.000        3297.86     
  1644.23        500.000        3296.42     
  1641.03        500.000        3295.02     
  1637.82        500.000        3293.66     
  1634.62        500.000        3292.32     
  1631.41        500.000        3291.03     
  1628.21        500.000        3289.77     
  1625.00        500.000        3288.57     
  1621.79        500.000        3288.68     
  1618.59        500.000        3289.49     
  1615.38        500.000        3290.30     
  1612.18        500.000        3291.09     
  1608.97        500.000        3291.87     
  1605.77        500.000        3292.65     
  1602.56        500.000        3293.42     
  1599.36        500.000        3294.18     
  1596.15        500.000        3294.93     
  1592.95        500.000        3295.65     
  1589.74        500.000        3294.92     
  1586.54        500.000        3294.34     
  1583.33        500.000        3293.79     
  1580.13        500.000        3293.26     
  1576.92        500.000        3292.76     
  1573.72        500.000        3292.28     
  1570.51        500.000        3291.83     
  1567.31        500.000        3291.40     
  1564.10        500.000        3290.99     
  1560.90        500.000        3290.81     
  1557.69        500.000        3290.65     
  1554.49        500.000        3290.50     
  1551.28        500.000        3290.36     
  1548.08        500.000        3290.23     
  1544.87        500.000        3290.11     
  1541.67        500.000        3290.00     
  1538.46        500.000        3289.90     
  1535.26        500.000        3289.92     
  1532.05        500.000        3289.95     
  1528.85        500.000        3289.98     
  1525.64        500.000        3290.02     
  1522.44        500.000        3290.07     
  1519.23        500.000        3290.12     
  1516.03        500.000        3290.17     
  1512.82        500.000        3290.23     
  1509.62        500.000        3290.36     
  1506.41        500.000        3290.49     
  1503.21        500.000        3290.62     
  1500.00        500.000        3290.76     
  1496.79        500.000        3290.90     
  1493.59        500.000        3291.04     
  1490.38        500.000        3291.19     
  1487.18        500.000        3291.34     
  1483.97        500.000        3291.54     
  1480.77        500.000        3291.73     
  1477.56        500.000        3291.93     
  1474.36        500.000        3292.13     
  1471.15        500.000        3292.33     
  1467.95        500.000        3292.54     
  1464.74        500.000        3292.74     
  1461.54        500.000        3292.95     
  1458.33        500.000        3293.18     
  1455.13        500.000        3293.41     
  1451.92        500.000        3293.65     
  1448.72        500.000        3293.90     
  1445.51        500.000        3294.21     
  1442.31        500.000        3294.52     
  1439.10        500.000        3294.83     
  1435.90        500.000        3295.14     
  1432.69        500.000        3295.49     
  1429.49        500.000        3295.85     
  1426.28        500.000        3296.20     
  1423.08        500.000        3296.56     
  1419.87        500.000        3296.93     
  1416.67        500.000        3297.30     
  1413.46        500.000        3297.74     
  1410.26        500.000        3298.01     
  1407.05        500.000        3296.98     
  1403.85        500.000        3295.95     
  1400.64        500.000        3296.39     
  1397.44        500.000        3294.19     
  1394.23        500.000        3294.63     
  1391.03        500.000        3295.06     
  1387.82        500.000        3295.49     
  1384.62        500.000        3291.58     
  1381.41        500.000        3292.01     
  1378.21        500.000        3292.44     
  1375.00        500.000        3292.87     
  1371.79        500.000        3293.30     
  1368.59        500.000        3293.73     
  1365.38        500.000        3294.16     
  1362.18        500.000        3294.59     
  1358.97        500.000        3288.55     
  1355.77        500.000        3288.98     
  1352.56        500.000        3289.40     
  1349.36        500.000        3289.83     
  1346.15        500.000        3290.25     
  1342.95        500.000        3290.68     
  1339.74        500.000        3291.10     
  1336.54        500.000        3291.53     
  1333.33        500.000        3287.09     
  1330.13        500.000        3287.51     
  1326.92        500.000        3287.93     
  1323.72        500.000        3288.35     
  1320.51        500.000        3288.77     
  1317.31        500.000        3289.19     
  1314.10        500.000        3289.62     
  1310.90        500.000        3290.04     
  1307.69        500.000        3286.53     
  1304.49        500.000        3286.50     
  1301.28        500.000        3254.97     
  1298.08        500.000        3237.90     
  1294.87        500.000        3238.26     
  1291.67        500.000        3238.66     
  1288.46        500.000        3239.07     
  1285.26        500.000        3239.47     
  1282.05        500.000        3239.70     
  1278.85        500.000        3240.10     
  1275.64        500.000        3240.51     
  1272.44        500.000        3240.91     
  1269.23        500.000        3241.31     
  1266.03        500.000        3241.72     
  1262.82        500.000        3242.12     
  1259.62        500.000        3242.52     
  1256.41        500.000        3242.60     
  1253.21        500.000        3243.00     
  1250.00        500.000        3243.40     
  1246.79        500.000        3243.80     
  1243.59        500.000        3244.20     
  1240.38        500.000        3244.60     
  1237.18        500.000        3245.00     
  1233.97        500.000        3245.40     
  1230.77        500.000        3245.50     
  1227.56        500.000        3245.90     
  1224.36        500.000        3246.30     
  1221.15        500.000        3246.70     
  1217.95        500.000        3247.09     
  1214.74        500.000        3247.49     
  1211.54        500.000        3247.89     
  1208.33        500.000        3248.29     
  1205.13        500.000        3248.41     
  1201.92        500.000        3248.81     
  1198.72        500.000        3249.21     
  1195.51        500.000        3249.60     
  1192.31        500.000        3250.00     
  1189.10        500.000        3250.40     
  1185.90        500.000        3250.79     
  1182.69        500.000        3251.19     
  1179.49        500.000        3251.34     
  1176.28        500.000        3251.73     
  1173.08        500.000        3252.13     
  1169.87        500.000        3252.52     
  1166.67        500.000        3252.92     
  1163.46        500.000        3253.31     
  1160.26        500.000        3253.70     
  1157.05        500.000        3254.10     
  1153.85        500.000        3254.27     
  1150.64        500.000        3254.66     
  1147.44        500.000        3255.05     
  1144.23        500.000        3255.45     
  1141.03        500.000        3255.84     
  1137.82        500.000        3256.23     
  1134.62        500.000        3256.62     
  1131.41        500.000        3257.01     
  1128.21        500.000        3257.21     
  1125.00        500.000        3257.60     
  1121.79        500.000        3257.99     
  1118.59        500.000        3258.38     
  1115.38        500.000        3258.77     
  1112.18        500.000        3259.16     
  1108.97        500.000        3259.55     
  1105.77        500.000        3259.94     
  1102.56        500.000        3260.16     
  1099.36        500.000        3260.55     
  1096.15        500.000        3260.93     
  1092.95        500.000        3261.32     
  1089.74        500.000        3261.71     
  1086.54        500.000        3262.10     
  1083.33        500.000        3262.49     
  1080.13        500.000        3262.87     
  1076.92        500.000        3263.12     
  1073.72        500.000        3263.51     
  1070.51        500.000        3263.89     
  1067.31        500.000        3264.28     
  1064.10        500.000        3264.66     
  1060.90        500.000        3265.05     
  1057.69        500.000        3265.44     
  1054.49        500.000        3265.82     
  1051.28        500.000        3266.10     
  1048.08        500.000        3266.47     
  1044.87        500.000        3266.85     
  1041.67        500.000        3267.24     
  1038.46        500.000        3267.61     
  1035.26        500.000        3267.99     
  1032.05        500.000        3268.37     
  1028.85        500.000        3268.76     
  1025.64        500.000        3269.12     
  1022.44        500.000        3269.51     
  1019.23        500.000        3269.90     
  1016.03        500.000        3270.29     
  1012.82        500.000        3270.68     
  1009.62        500.000        3271.07     
  1006.41        500.000        3271.45     
  1003.21        500.000        3271.84     
  1000.00        500.000        3272.14     
