|6.6.6
Archiving\03_Data\Deqfrac/QFM_m4/YM20/YM20_6.tab                        
           1
T(K)    
  0.000000000000000E+000
  0.000000000000000E+000
           0
           3
T(K)           P(bar)         rho,kg/m3     
  1618.59        2500.00        3222.03     
  1617.04        2500.00        3222.94     
  1615.49        2500.00        3231.19     
  1613.94        2500.00        3231.68     
  1612.39        2500.00        3232.05     
  1610.84        2500.00        3232.54     
  1609.29        2500.00        3232.67     
  1607.74        2500.00        3233.70     
  1606.19        2500.00        3234.04     
  1604.64        2500.00        3235.07     
  1603.09        2500.00        3234.44     
  1601.54        2500.00        3235.47     
  1599.99        2500.00        3236.43     
  1598.44        2500.00        3236.42     
  1596.89        2500.00        3237.29     
  1595.33        2500.00        3237.23     
  1593.78        2500.00        3237.62     
  1592.23        2500.00        3238.48     
  1590.68        2500.00        3235.85     
  1589.13        2500.00        3241.75     
  1587.58        2500.00        3239.88     
  1586.03        2500.00        3240.16     
  1584.48        2500.00        3240.98     
  1582.93        2500.00        3240.69     
  1581.38        2500.00        3232.64     
  1579.83        2500.00        3242.01     
  1578.28        2500.00        3242.60     
  1576.73        2500.00        3243.02     
  1575.18        2500.00        3243.06     
  1573.63        2500.00        3243.73     
  1572.08        2500.00        3244.41     
  1570.53        2500.00        3244.55     
  1568.98        2500.00        3245.28     
  1567.43        2500.00        3245.55     
  1565.88        2500.00        3245.75     
  1564.33        2500.00        3246.40     
  1562.78        2500.00        3246.99     
  1561.23        2500.00        3248.08     
  1559.68        2500.00        3247.12     
  1558.13        2500.00        3248.01     
  1556.58        2500.00        3248.18     
  1555.03        2500.00        3249.10     
  1553.48        2500.00        3249.55     
  1551.92        2500.00        3249.42     
  1550.37        2500.00        3250.53     
  1548.82        2500.00        3250.67     
  1547.27        2500.00        3252.17     
  1545.72        2500.00        3249.97     
  1544.17        2500.00        3253.57     
  1542.62        2500.00        3252.86     
  1541.07        2500.00        3252.08     
  1539.52        2500.00        3252.89     
  1537.97        2500.00        3253.46     
  1536.42        2500.00        3255.26     
  1534.87        2500.00        3253.00     
  1533.32        2500.00        3254.95     
  1531.77        2500.00        3255.35     
  1530.22        2500.00        3255.02     
  1528.67        2500.00        3256.10     
  1527.12        2500.00        3256.66     
  1525.57        2500.00        3256.75     
  1524.02        2500.00        3256.79     
  1522.47        2500.00        3241.25     
  1520.92        2500.00        3239.02     
  1519.37        2500.00        3239.98     
  1517.82        2500.00        3247.72     
  1516.27        2500.00        3243.33     
  1514.72        2500.00        3243.05     
  1513.17        2500.00        3243.59     
  1511.62        2500.00        3244.38     
  1510.07        2500.00        3246.07     
  1508.52        2500.00        3245.85     
  1506.96        2500.00        3246.31     
  1505.41        2500.00        3243.37     
  1503.86        2500.00        3237.65     
  1502.31        2500.00        3238.63     
  1500.76        2500.00        3239.70     
  1499.21        2500.00        3240.89     
  1497.66        2500.00        3242.04     
  1496.11        2500.00        3243.37     
  1494.56        2500.00        3244.32     
  1493.01        2500.00        3245.77     
  1491.46        2500.00        3246.52     
  1489.91        2500.00        3247.70     
  1488.36        2500.00        3249.34     
  1486.81        2500.00        3250.19     
  1485.26        2500.00        3251.67     
  1483.71        2500.00        3252.55     
  1482.16        2500.00        3253.88     
  1480.61        2500.00        3254.86     
  1479.06        2500.00        3256.45     
  1477.51        2500.00        3257.47     
  1475.96        2500.00        3259.27     
  1474.41        2500.00        3265.11     
  1472.86        2500.00        3261.06     
  1471.31        2500.00        3262.34     
  1469.76        2500.00        3263.72     
  1468.21        2500.00        3265.03     
  1466.66        2500.00        3273.33     
  1465.11        2500.00        3132.86     
  1463.55        2500.00        3092.49     
  1462.00        2500.00        3094.77     
  1460.45        2500.00        3096.54     
  1458.90        2500.00        3098.47     
  1457.35        2500.00        3100.42     
  1455.80        2500.00        3102.34     
  1454.25        2500.00        3104.35     
  1452.70        2500.00        3106.14     
  1451.15        2500.00        3108.09     
  1449.60        2500.00        3110.04     
  1448.05        2500.00        3111.94     
  1446.50        2500.00        3113.83     
  1444.95        2500.00        3115.81     
  1443.40        2500.00        3117.31     
  1441.85        2500.00        3119.69     
  1440.30        2500.00        3121.60     
  1438.75        2500.00        3123.44     
  1437.20        2500.00        3125.35     
  1435.65        2500.00        3127.24     
  1434.10        2500.00        3129.19     
  1432.55        2500.00        3131.20     
  1431.00        2500.00        3133.06     
  1429.45        2500.00        3135.06     
  1427.90        2500.00        3136.96     
  1426.35        2500.00        3139.45     
  1424.80        2500.00        3140.38     
  1423.25        2500.00        3142.99     
  1421.70        2500.00        3144.82     
  1420.15        2500.00        3146.79     
  1418.59        2500.00        3148.91     
  1417.04        2500.00        3150.71     
  1415.49        2500.00        3152.44     
  1413.94        2500.00        3155.07     
  1412.39        2500.00        3156.77     
  1410.84        2500.00        3158.75     
  1409.29        2500.00        3160.26     
  1407.74        2500.00        3162.80     
  1406.19        2500.00        3164.83     
  1404.64        2500.00        3166.79     
  1403.09        2500.00        3167.73     
  1401.54        2500.00        3171.37     
  1399.99        2500.00        3172.71     
  1398.44        2500.00        3174.66     
  1396.89        2500.00        3175.24     
  1395.34        2500.00        3179.71     
  1393.79        2500.00        3180.86     
  1392.24        2500.00        3182.94     
  1390.69        2500.00        3184.74     
  1389.14        2500.00        3186.73     
  1387.59        2500.00        3188.90     
  1386.04        2500.00        3190.90     
  1384.49        2500.00        3192.62     
  1382.94        2500.00        3194.84     
  1381.39        2500.00        3196.71     
  1379.84        2500.00        3198.71     
  1378.29        2500.00        3200.74     
  1376.74        2500.00        3202.52     
  1375.18        2500.00        3204.58     
  1373.63        2500.00        3206.37     
  1372.08        2500.00        3208.21     
  1370.53        2500.00        3209.68     
  1368.98        2500.00        3212.68     
  1367.43        2500.00        3214.17     
  1365.88        2500.00        3216.03     
  1364.33        2500.00        3217.78     
  1362.78        2500.00        3219.23     
  1361.23        2500.00        3221.40     
  1359.68        2500.00        3223.12     
  1358.13        2500.00        3225.11     
  1356.58        2500.00        3226.70     
  1355.03        2500.00        3227.96     
  1353.48        2500.00        3229.97     
  1351.93        2500.00        3232.02     
  1350.38        2500.00        3233.28     
  1348.83        2500.00        3234.56     
  1347.28        2500.00        3236.68     
  1345.73        2500.00        3237.90     
  1344.18        2500.00        3239.44     
  1342.63        2500.00        3240.91     
  1341.08        2500.00        3242.42     
  1339.53        2500.00        3243.74     
  1337.98        2500.00        3245.25     
  1336.43        2500.00        3246.21     
  1334.88        2500.00        3247.54     
  1333.33        2500.00        3248.74     
  1331.78        2500.00        3249.87     
  1330.22        2500.00        3250.92     
  1328.67        2500.00        3252.17     
  1327.12        2500.00        3253.54     
  1325.57        2500.00        3253.94     
  1324.02        2500.00        3254.72     
  1322.47        2500.00        3256.86     
  1320.92        2500.00        3253.37     
  1319.37        2500.00        3256.19     
  1317.82        2500.00        3258.47     
  1316.27        2500.00        3247.67     
  1314.72        2500.00        3259.92     
  1313.17        2500.00        3261.23     
  1311.62        2500.00        3261.94     
  1310.07        2500.00        3260.63     
  1308.52        2500.00        2939.33     
  1306.97        2500.00        2805.07     
  1305.42        2500.00        2808.93     
  1303.87        2500.00        2812.64     
  1302.32        2500.00        2816.19     
  1300.77        2500.00        2819.69     
  1299.22        2500.00        2836.31     
  1297.67        2500.00        2841.87     
  1296.12        2500.00        2844.38     
  1294.57        2500.00        2846.94     
  1293.02        2500.00        2848.14     
  1291.47        2500.00        2847.15     
  1289.92        2500.00        2853.12     
  1288.37        2500.00        2862.06     
  1286.81        2500.00        2839.49     
  1285.26        2500.00        2842.27     
  1283.71        2500.00        2843.72     
  1282.16        2500.00        2842.27     
  1280.61        2500.00        2833.50     
  1279.06        2500.00        2824.80     
  1277.51        2500.00        2823.70     
  1275.96        2500.00        2835.26     
  1274.41        2500.00        2838.31     
  1272.86        2500.00        2849.33     
  1271.31        2500.00        2844.87     
  1269.76        2500.00        2848.98     
  1268.21        2500.00        2858.46     
  1266.66        2500.00        2844.73     
  1265.11        2500.00        2855.28     
  1263.56        2500.00        2705.41     
  1262.01        2500.00        2925.13     
  1260.46        2500.00        2918.01     
  1258.91        2500.00        2917.54     
  1257.36        2500.00        2917.07     
  1255.81        2500.00        2863.72     
  1254.26        2500.00        2930.28     
  1252.71        2500.00        2996.55     
  1251.16        2500.00        3298.28     
  1249.61        2500.00        2776.22     
  1248.06        2500.00        2673.70     
  1246.51        2500.00        2914.90     
  1244.96        2500.00        2841.90     
  1243.41        2500.00        2972.26     
  1241.85        2500.00        2879.27     
  1240.30        2500.00        2910.80     
  1238.75        2500.00        2959.92     
  1237.20        2500.00        2959.75     
  1235.65        2500.00        2829.27     
  1234.10        2500.00        2947.23     
  1232.55        2500.00        2943.59     
  1231.00        2500.00        2941.27     
  1229.45        2500.00        2848.70     
  1227.90        2500.00        2849.32     
  1226.35        2500.00        2806.72     
  1224.80        2500.00        2849.57     
  1223.25        2500.00        2807.16     
  1221.70        2500.00        2807.38     
  1220.15        2500.00        2807.61     
  1218.60        2500.00        2807.82     
  1217.05        2500.00        2850.85     
  1215.50        2500.00        2808.27     
  1213.95        2500.00        2808.49     
  1212.40        2500.00        2837.17     
  1210.85        2500.00        2808.93     
  1209.30        2500.00        2809.15     
  1207.75        2500.00        2809.37     
  1206.20        2500.00        2809.59     
  1204.65        2500.00        2809.81     
  1203.10        2500.00        2810.03     
  1201.55        2500.00        2810.25     
  1200.00        2500.00        2810.48     
  1198.44        2500.00        2810.70     
  1196.89        2500.00        2810.92     
  1195.34        2500.00        2811.15     
  1193.79        2500.00        2811.37     
  1192.24        2500.00        2811.60     
  1190.69        2500.00        2856.83     
  1189.14        2500.00        2812.05     
  1187.59        2500.00        2812.27     
  1186.04        2500.00        2812.49     
  1184.49        2500.00        2840.85     
  1182.94        2500.00        2812.94     
  1181.39        2500.00        2846.18     
  1179.84        2500.00        2842.65     
  1178.29        2500.00        2857.42     
  1176.74        2500.00        2857.25     
  1175.19        2500.00        2814.08     
  1173.64        2500.00        2814.30     
  1172.09        2500.00        2814.50     
  1170.54        2500.00        2860.57     
  1168.99        2500.00        2860.06     
  1167.44        2500.00        2815.21     
  1165.89        2500.00        2815.44     
  1164.34        2500.00        2815.67     
  1162.79        2500.00        2859.99     
  1161.24        2500.00        2816.13     
  1159.69        2500.00        2816.35     
  1158.14        2500.00        2816.59     
  1156.59        2500.00        2816.81     
  1155.04        2500.00        2817.05     
  1153.48        2500.00        2817.29     
  1151.93        2500.00        2817.51     
  1150.38        2500.00        2817.74     
  1148.83        2500.00        2821.33     
  1147.28        2500.00        2821.57     
  1145.73        2500.00        2820.57     
  1144.18        2500.00        2820.81     
  1142.63        2500.00        2863.80     
  1141.08        2500.00        2822.42     
  1139.53        2500.00        2822.74     
  1137.98        2500.00        2822.96     
  1136.43        2500.00        2823.24     
  1134.88        2500.00        2823.86     
  1133.33        2500.00        2823.66     
  1131.78        2500.00        2823.80     
  1130.23        2500.00        2824.13     
  1128.68        2500.00        2849.30     
  1127.13        2500.00        2849.50     
  1125.58        2500.00        2849.86     
  1124.03        2500.00        2850.42     
  1122.48        2500.00        2825.37     
  1120.93        2500.00        2825.58     
  1119.38        2500.00        2825.83     
  1117.83        2500.00        2826.19     
  1116.28        2500.00        2826.31     
  1114.73        2500.00        2826.49     
  1113.18        2500.00        2826.75     
  1111.63        2500.00        2827.05     
  1110.07        2500.00        2827.29     
  1108.52        2500.00        2828.00     
  1106.97        2500.00        2872.31     
  1105.42        2500.00        2853.09     
  1103.87        2500.00        2828.12     
  1102.32        2500.00        2870.82     
  1100.77        2500.00        2828.74     
  1099.22        2500.00        2828.99     
  1097.67        2500.00        2829.09     
  1096.12        2500.00        2829.40     
  1094.57        2500.00        2829.65     
  1093.02        2500.00        2830.04     
  1091.47        2500.00        2875.08     
  1089.92        2500.00        2875.32     
  1088.37        2500.00        2856.15     
  1086.82        2500.00        2831.04     
  1085.27        2500.00        2831.10     
  1083.72        2500.00        2831.37     
  1082.17        2500.00        2831.82     
  1080.62        2500.00        2877.40     
  1079.07        2500.00        2832.95     
  1077.52        2500.00        2878.03     
  1075.97        2500.00        2878.19     
  1074.42        2500.00        2877.96     
  1072.87        2500.00        2878.96     
  1071.32        2500.00        2879.05     
  1069.77        2500.00        2833.74     
  1068.22        2500.00        2835.13     
  1066.67        2500.00        2834.00     
  1065.11        2500.00        2880.70     
  1063.56        2500.00        2878.01     
  1062.01        2500.00        2877.39     
  1060.46        2500.00        2880.07     
  1058.91        2500.00        2880.30     
  1057.36        2500.00        2835.41     
  1055.81        2500.00        2835.78     
  1054.26        2500.00        2836.03     
  1052.71        2500.00        2881.69     
  1051.16        2500.00        2879.55     
  1049.61        2500.00        2837.29     
  1048.06        2500.00        2837.07     
  1046.51        2500.00        2837.22     
  1044.96        2500.00        2883.00     
  1043.41        2500.00        2882.61     
  1041.86        2500.00        2882.96     
  1040.31        2500.00        2838.77     
  1038.76        2500.00        2883.76     
  1037.21        2500.00        2884.02     
  1035.66        2500.00        2839.07     
  1034.11        2500.00        2882.33     
  1032.56        2500.00        2885.10     
  1031.01        2500.00        2884.38     
  1029.46        2500.00        2885.21     
  1027.91        2500.00        2883.24     
  1026.36        2500.00        2883.60     
  1024.81        2500.00        2884.70     
  1023.26        2500.00        2886.48     
  1021.70        2500.00        2886.89     
  1020.15        2500.00        2882.08     
  1018.60        2500.00        2887.07     
  1017.05        2500.00        2886.38     
  1015.50        2500.00        2887.71     
  1013.95        2500.00        2887.75     
  1012.40        2500.00        2888.08     
  1010.85        2500.00        2888.01     
  1009.30        2500.00        2887.43     
  1007.75        2500.00        2888.99     
  1006.20        2500.00        2889.73     
  1004.65        2500.00        2889.92     
  1003.10        2500.00        2890.34     
  1001.55        2500.00        2890.35     
  1000.00        2500.00        2890.93     
