|6.6.6
Archiving\03_Data\eq/QFM_m5/Y98/Y98_3.tab                                 
           1
T(K)    
  0.000000000000000E+000
  0.000000000000000E+000
           0
          12
T(K)           P(bar)         melt(TH)       pxmn           iron           Ni             Sp(TH)         Opx(TH)        O(HP)          Cpx(TH)        Cpx(TH)        an            
  2000.00        2500.00        98.3222       0.783998       0.885380       0.845151E-002            NaN            NaN            NaN            NaN            NaN            NaN
  1996.79        2500.00        98.3115       0.784140       0.895862       0.845225E-002            NaN            NaN            NaN            NaN            NaN            NaN
  1993.59        2500.00        98.3009       0.784283       0.906347       0.845300E-002            NaN            NaN            NaN            NaN            NaN            NaN
  1990.38        2500.00        98.2903       0.784425       0.916834       0.845375E-002            NaN            NaN            NaN            NaN            NaN            NaN
  1987.18        2500.00        98.2797       0.784567       0.927324       0.845450E-002            NaN            NaN            NaN            NaN            NaN            NaN
  1983.97        2500.00        98.2690       0.784709       0.937817       0.845525E-002            NaN            NaN            NaN            NaN            NaN            NaN
  1980.77        2500.00        98.2584       0.784851       0.948312       0.845600E-002            NaN            NaN            NaN            NaN            NaN            NaN
  1977.56        2500.00        98.2477       0.784992       0.958810       0.845675E-002            NaN            NaN            NaN            NaN            NaN            NaN
  1974.36        2500.00        98.2371       0.785134       0.969310       0.845751E-002            NaN            NaN            NaN            NaN            NaN            NaN
  1971.15        2500.00        98.2269       0.785273       0.979387       0.845823E-002            NaN            NaN            NaN            NaN            NaN            NaN
  1967.95        2500.00        98.2167       0.785412       0.989465       0.845895E-002            NaN            NaN            NaN            NaN            NaN            NaN
  1964.74        2500.00        98.2064       0.785551       0.999546       0.845967E-002            NaN            NaN            NaN            NaN            NaN            NaN
  1961.54        2500.00        98.1962       0.785689        1.00963       0.846039E-002            NaN            NaN            NaN            NaN            NaN            NaN
  1958.33        2500.00        98.1860       0.785828        1.01972       0.846112E-002            NaN            NaN            NaN            NaN            NaN            NaN
  1955.13        2500.00        98.1758       0.785967        1.02980       0.846184E-002            NaN            NaN            NaN            NaN            NaN            NaN
  1951.92        2500.00        98.1655       0.786105        1.03990       0.846257E-002            NaN            NaN            NaN            NaN            NaN            NaN
  1948.72        2500.00        98.1553       0.786244        1.04999       0.846329E-002            NaN            NaN            NaN            NaN            NaN            NaN
  1945.51        2500.00        98.1455       0.786380        1.05967       0.846399E-002            NaN            NaN            NaN            NaN            NaN            NaN
  1942.31        2500.00        98.1357       0.786515        1.06936       0.846469E-002            NaN            NaN            NaN            NaN            NaN            NaN
  1939.10        2500.00        98.1258       0.786651        1.07905       0.846539E-002            NaN            NaN            NaN            NaN            NaN            NaN
  1935.90        2500.00        98.1160       0.786787        1.08874       0.846608E-002            NaN            NaN            NaN            NaN            NaN            NaN
  1932.69        2500.00        98.1062       0.786922        1.09844       0.846678E-002            NaN            NaN            NaN            NaN            NaN            NaN
  1929.49        2500.00        98.0963       0.787058        1.10814       0.846748E-002            NaN            NaN            NaN            NaN            NaN            NaN
  1926.28        2500.00        98.0865       0.787193        1.11783       0.846818E-002            NaN            NaN            NaN            NaN            NaN            NaN
  1923.08        2500.00        98.0767       0.787329        1.12754       0.846889E-002            NaN            NaN            NaN            NaN            NaN            NaN
  1919.87        2500.00        98.0673       0.787461        1.13681       0.846956E-002            NaN            NaN            NaN            NaN            NaN            NaN
  1916.67        2500.00        98.0578       0.787594        1.14609       0.847023E-002            NaN            NaN            NaN            NaN            NaN            NaN
  1913.46        2500.00        98.0484       0.787726        1.15538       0.847090E-002            NaN            NaN            NaN            NaN            NaN            NaN
  1910.26        2500.00        98.0390       0.787859        1.16466       0.847157E-002            NaN            NaN            NaN            NaN            NaN            NaN
  1907.05        2500.00        98.0296       0.787991        1.17395       0.847225E-002            NaN            NaN            NaN            NaN            NaN            NaN
  1903.85        2500.00        98.0202       0.788124        1.18324       0.847292E-002            NaN            NaN            NaN            NaN            NaN            NaN
  1900.64        2500.00        98.0107       0.788256        1.19253       0.847360E-002            NaN            NaN            NaN            NaN            NaN            NaN
  1897.44        2500.00        98.0013       0.788388        1.20182       0.847427E-002            NaN            NaN            NaN            NaN            NaN            NaN
  1894.23        2500.00        97.9923       0.788518        1.21072       0.847492E-002            NaN            NaN            NaN            NaN            NaN            NaN
  1891.03        2500.00        97.9833       0.788647        1.21962       0.847557E-002            NaN            NaN            NaN            NaN            NaN            NaN
  1887.82        2500.00        97.9742       0.788777        1.22852       0.847622E-002            NaN            NaN            NaN            NaN            NaN            NaN
  1884.62        2500.00        97.9652       0.788906        1.23742       0.847687E-002            NaN            NaN            NaN            NaN            NaN            NaN
  1881.41        2500.00        97.9562       0.789036        1.24633       0.847752E-002            NaN            NaN            NaN            NaN            NaN            NaN
  1878.21        2500.00        97.9471       0.789165        1.25524       0.847817E-002            NaN            NaN            NaN            NaN            NaN            NaN
  1875.00        2500.00        97.9381       0.789295        1.26415       0.847882E-002            NaN            NaN            NaN            NaN            NaN            NaN
  1871.79        2500.00        97.9290       0.789424        1.27306       0.847948E-002            NaN            NaN            NaN            NaN            NaN            NaN
  1868.59        2500.00        97.9204       0.789551        1.28157       0.848010E-002            NaN            NaN            NaN            NaN            NaN            NaN
  1865.38        2500.00        97.9118       0.789677        1.29009       0.848073E-002            NaN            NaN            NaN            NaN            NaN            NaN
  1862.18        2500.00        97.9031       0.789804        1.29861       0.848135E-002            NaN            NaN            NaN            NaN            NaN            NaN
  1858.97        2500.00        97.8945       0.789930        1.30713       0.848198E-002            NaN            NaN            NaN            NaN            NaN            NaN
  1855.77        2500.00        97.8858       0.790057        1.31565       0.848261E-002            NaN            NaN            NaN            NaN            NaN            NaN
  1852.56        2500.00        97.8772       0.790183        1.32418       0.848324E-002            NaN            NaN            NaN            NaN            NaN            NaN
  1849.36        2500.00        97.8685       0.790310        1.33271       0.848387E-002            NaN            NaN            NaN            NaN            NaN            NaN
  1846.15        2500.00        97.8598       0.790436        1.34124       0.848450E-002            NaN            NaN            NaN            NaN            NaN            NaN
  1842.95        2500.00        97.8516       0.790560        1.34937       0.848510E-002            NaN            NaN            NaN            NaN            NaN            NaN
  1839.74        2500.00        97.8433       0.790684        1.35750       0.848570E-002            NaN            NaN            NaN            NaN            NaN            NaN
  1836.54        2500.00        97.8351       0.790808        1.36564       0.848630E-002            NaN            NaN            NaN            NaN            NaN            NaN
  1833.33        2500.00        97.8268       0.790931        1.37377       0.848691E-002            NaN            NaN            NaN            NaN            NaN            NaN
  1830.13        2500.00        97.8185       0.791055        1.38191       0.848751E-002            NaN            NaN            NaN            NaN            NaN            NaN
  1826.92        2500.00        97.8103       0.791179        1.39005       0.848812E-002            NaN            NaN            NaN            NaN            NaN            NaN
  1823.72        2500.00        97.8020       0.791302        1.39819       0.848873E-002            NaN            NaN            NaN            NaN            NaN            NaN
  1820.51        2500.00        97.7937       0.791426        1.40633       0.848933E-002            NaN            NaN            NaN            NaN            NaN            NaN
  1817.31        2500.00        97.7859       0.791547        1.41408       0.848991E-002            NaN            NaN            NaN            NaN            NaN            NaN
  1814.10        2500.00        97.7780       0.791668        1.42183       0.849050E-002            NaN            NaN            NaN            NaN            NaN            NaN
  1810.90        2500.00        97.7701       0.791789        1.42958       0.849108E-002            NaN            NaN            NaN            NaN            NaN            NaN
  1807.69        2500.00        97.7623       0.791910        1.43734       0.849166E-002            NaN            NaN            NaN            NaN            NaN            NaN
  1804.49        2500.00        97.7544       0.792030        1.44509       0.849224E-002            NaN            NaN            NaN            NaN            NaN            NaN
  1801.28        2500.00        97.7465       0.792151        1.45285       0.849283E-002            NaN            NaN            NaN            NaN            NaN            NaN
  1798.08        2500.00        97.7386       0.792272        1.46061       0.849341E-002            NaN            NaN            NaN            NaN            NaN            NaN
  1794.87        2500.00        97.7307       0.792393        1.46837       0.849400E-002            NaN            NaN            NaN            NaN            NaN            NaN
  1791.67        2500.00        97.7233       0.792511        1.47574       0.849456E-002            NaN            NaN            NaN            NaN            NaN            NaN
  1788.46        2500.00        97.7158       0.792629        1.48312       0.849511E-002            NaN            NaN            NaN            NaN            NaN            NaN
  1785.26        2500.00        97.7083       0.792748        1.49050       0.849568E-002            NaN            NaN            NaN            NaN            NaN            NaN
  1782.05        2500.00        97.7008       0.792866        1.49788       0.849624E-002            NaN            NaN            NaN            NaN            NaN            NaN
  1778.85        2500.00        97.6933       0.792984        1.50526       0.849680E-002            NaN            NaN            NaN            NaN            NaN            NaN
  1775.64        2500.00        97.6858       0.793102        1.51265       0.849736E-002            NaN            NaN            NaN            NaN            NaN            NaN
  1772.44        2500.00        97.6783       0.793220        1.52003       0.849793E-002            NaN            NaN            NaN            NaN            NaN            NaN
  1769.23        2500.00        97.6707       0.793338        1.52742       0.849849E-002            NaN            NaN            NaN            NaN            NaN            NaN
  1766.03        2500.00        97.6636       0.793454        1.53442       0.849903E-002            NaN            NaN            NaN            NaN            NaN            NaN
  1762.82        2500.00        97.6565       0.793569        1.54142       0.849957E-002            NaN            NaN            NaN            NaN            NaN            NaN
  1759.62        2500.00        97.6494       0.793685        1.54842       0.850011E-002            NaN            NaN            NaN            NaN            NaN            NaN
  1756.41        2500.00        97.6423       0.793800        1.55543       0.850065E-002            NaN            NaN            NaN            NaN            NaN            NaN
  1753.21        2500.00        97.6352       0.793916        1.56243       0.850119E-002            NaN            NaN            NaN            NaN            NaN            NaN
  1750.00        2500.00        97.6280       0.794031        1.56944       0.850173E-002            NaN            NaN            NaN            NaN            NaN            NaN
  1746.79        2500.00        97.6209       0.794147        1.57645       0.850227E-002            NaN            NaN            NaN            NaN            NaN            NaN
  1743.59        2500.00        97.6138       0.794262        1.58346       0.850282E-002            NaN            NaN            NaN            NaN            NaN            NaN
  1740.38        2500.00        97.6070       0.794375        1.59008       0.850333E-002            NaN            NaN            NaN            NaN            NaN            NaN
  1737.18        2500.00        97.6003       0.794488        1.59671       0.850385E-002            NaN            NaN            NaN            NaN            NaN            NaN
  1733.97        2500.00        97.5936       0.794601        1.60334       0.850437E-002            NaN            NaN            NaN            NaN            NaN            NaN
  1730.77        2500.00        97.5868       0.794714        1.60997       0.850489E-002            NaN            NaN            NaN            NaN            NaN            NaN
  1727.56        2500.00        97.5801       0.794827        1.61660       0.850541E-002            NaN            NaN            NaN            NaN            NaN            NaN
  1724.36        2500.00        97.5733       0.794939        1.62323       0.850594E-002            NaN            NaN            NaN            NaN            NaN            NaN
  1721.15        2500.00        97.5666       0.795052        1.62987       0.850646E-002            NaN            NaN            NaN            NaN            NaN            NaN
  1717.95        2500.00        97.5598       0.795165        1.63650       0.850698E-002            NaN            NaN            NaN            NaN            NaN            NaN
  1714.74        2500.00        97.5535       0.795275        1.64275       0.850748E-002            NaN            NaN            NaN            NaN            NaN            NaN
  1711.54        2500.00        97.5471       0.795386        1.64901       0.850798E-002            NaN            NaN            NaN            NaN            NaN            NaN
  1708.33        2500.00        97.5407       0.795496        1.65526       0.850848E-002            NaN            NaN            NaN            NaN            NaN            NaN
  1705.13        2500.00        97.5344       0.795606        1.66152       0.850898E-002            NaN            NaN            NaN            NaN            NaN            NaN
  1701.92        2500.00        97.5280       0.795717        1.66778       0.850948E-002            NaN            NaN            NaN            NaN            NaN            NaN
  1698.72        2500.00        97.5216       0.795827        1.67404       0.850998E-002            NaN            NaN            NaN            NaN            NaN            NaN
  1695.51        2500.00        97.5153       0.795937        1.68030       0.851048E-002            NaN            NaN            NaN            NaN            NaN            NaN
  1692.31        2500.00        97.5089       0.796048        1.68656       0.851099E-002            NaN            NaN            NaN            NaN            NaN            NaN
  1689.10        2500.00        97.5028       0.796156        1.69258       0.851147E-002            NaN            NaN            NaN            NaN            NaN            NaN
  1685.90        2500.00        97.4966       0.796265        1.69860       0.851196E-002            NaN            NaN            NaN            NaN            NaN            NaN
  1682.69        2500.00        97.4906       0.796373        1.70455       0.851245E-002            NaN            NaN            NaN            NaN            NaN            NaN
  1679.49        2500.00        97.4893       0.796420        1.70191       0.851228E-002  0.388879E-002            NaN            NaN            NaN            NaN            NaN
  1676.28        2500.00        97.4724       0.796552        1.70888       0.851302E-002  0.136472E-001            NaN            NaN            NaN            NaN            NaN
  1673.08        2500.00        97.4555       0.796684        1.71585       0.851376E-002  0.234091E-001            NaN            NaN            NaN            NaN            NaN
  1669.87        2500.00        97.4387       0.796816        1.72282       0.851450E-002  0.331745E-001            NaN            NaN            NaN            NaN            NaN
  1666.67        2500.00        97.4218       0.796948        1.72980       0.851525E-002  0.429433E-001            NaN            NaN            NaN            NaN            NaN
  1663.46        2500.00        97.4058       0.797064        1.73427       0.851581E-002  0.543281E-001            NaN            NaN            NaN            NaN            NaN
  1660.26        2500.00        97.3898       0.797179        1.73875       0.851638E-002  0.657165E-001            NaN            NaN            NaN            NaN            NaN
  1657.05        2500.00        97.3738       0.797294        1.74323       0.851694E-002  0.771084E-001            NaN            NaN            NaN            NaN            NaN
  1653.85        2500.00        97.3579       0.797409        1.74772       0.851751E-002  0.885039E-001            NaN            NaN            NaN            NaN            NaN
  1650.64        2500.00        97.3419       0.797525        1.75220       0.851808E-002  0.999029E-001            NaN            NaN            NaN            NaN            NaN
  1647.44        2500.00        97.3259       0.797640        1.75668       0.851865E-002  0.111306                 NaN            NaN            NaN            NaN            NaN
  1644.23        2500.00        97.3098       0.797755        1.76117       0.851922E-002  0.122712                 NaN            NaN            NaN            NaN            NaN
  1641.03        2500.00        97.2938       0.797870        1.76565       0.851979E-002  0.134121                 NaN            NaN            NaN            NaN            NaN
  1637.82        2500.00        96.0013       0.799139        1.77410       0.853268E-002  0.130072        1.28685                 NaN            NaN            NaN            NaN
  1634.62        2500.00        93.9433       0.801099        1.78485       0.855295E-002  0.116168        3.34603                 NaN            NaN            NaN            NaN
  1631.41        2500.00        91.9911       0.802962        1.79490       0.857218E-002  0.101784        5.30066                 NaN            NaN            NaN            NaN
  1628.21        2500.00        90.0299       0.804831        1.80499       0.859147E-002  0.873330E-001   7.26433                 NaN            NaN            NaN            NaN
  1625.00        2500.00        88.2673       0.806518        1.81341       0.860882E-002  0.721808E-001   9.03195                 NaN            NaN            NaN            NaN
  1621.79        2500.00        86.4974       0.808211        1.82185       0.862622E-002  0.569645E-001   10.8069                 NaN            NaN            NaN            NaN
  1618.59        2500.00        84.7202       0.809908        1.83032       0.864367E-002  0.416838E-001   12.5892                 NaN            NaN            NaN            NaN
  1615.38        2500.00        82.9356       0.811609        1.83882       0.866117E-002  0.263384E-001   14.3790                 NaN            NaN            NaN            NaN
  1612.18        2500.00        81.2933       0.813181        1.84589       0.867728E-002  0.976862E-002   16.0291                 NaN            NaN            NaN            NaN
  1608.97        2500.00        79.7325       0.814680        1.85318       0.869262E-002            NaN   17.5910                 NaN            NaN            NaN            NaN
  1605.77        2500.00        78.2919       0.816062        1.85762       0.870669E-002            NaN   19.0257                 NaN            NaN            NaN            NaN
  1602.56        2500.00        76.8465       0.817446        1.86207       0.872080E-002            NaN   20.4652                 NaN            NaN            NaN            NaN
  1599.36        2500.00        75.5220       0.818719        1.86542       0.873371E-002            NaN   21.7851                 NaN            NaN            NaN            NaN
  1596.15        2500.00        74.1935       0.819993        1.86879       0.874665E-002            NaN   23.1090                 NaN            NaN            NaN            NaN
  1592.95        2500.00        72.8609       0.821271        1.87215       0.875961E-002            NaN   24.4369                 NaN            NaN            NaN            NaN
  1589.74        2500.00        71.5243       0.822550        1.87553       0.877260E-002            NaN   25.7688                 NaN            NaN            NaN            NaN
  1586.54        2500.00        70.3782       0.823658        1.87731       0.878375E-002            NaN   26.9121                 NaN            NaN            NaN            NaN
  1583.33        2500.00        69.2291       0.824767        1.87909       0.879492E-002            NaN   28.0583                 NaN            NaN            NaN            NaN
  1580.13        2500.00        68.0770       0.825878        1.88088       0.880610E-002            NaN   29.2075                 NaN            NaN            NaN            NaN
  1576.92        2500.00        66.9219       0.826991        1.88266       0.881730E-002            NaN   30.3597                 NaN            NaN            NaN            NaN
  1573.72        2500.00        65.7637       0.828105        1.88445       0.882852E-002            NaN   31.5149                 NaN            NaN            NaN            NaN
  1570.51        2500.00        64.6026       0.829221        1.88624       0.883975E-002            NaN   32.6731                 NaN            NaN            NaN            NaN
  1567.31        2500.00        63.4384       0.830338        1.88803       0.885100E-002            NaN   33.8344                 NaN            NaN            NaN            NaN
  1564.10        2500.00        62.2712       0.831457        1.88982       0.886227E-002            NaN   34.9987                 NaN            NaN            NaN            NaN
  1560.90        2500.00        61.2460       0.832450        1.89012       0.887219E-002            NaN   36.0226                 NaN            NaN            NaN            NaN
  1557.69        2500.00        60.2184       0.833444        1.89041       0.888213E-002            NaN   37.0489                 NaN            NaN            NaN            NaN
  1554.49        2500.00        59.1885       0.834440        1.89070       0.889208E-002            NaN   38.0775                 NaN            NaN            NaN            NaN
  1551.28        2500.00        58.1562       0.835437        1.89099       0.890204E-002            NaN   39.1085                 NaN            NaN            NaN            NaN
  1548.08        2500.00        57.1771       0.836370        1.88985       0.890423E-002            NaN   40.0712       0.166057E-001            NaN            NaN            NaN
  1544.87        2500.00        56.2237       0.837195        1.88239       0.887116E-002            NaN   40.9348       0.113089                 NaN            NaN            NaN
  1541.67        2500.00        55.2899       0.838003        1.87452       0.883878E-002            NaN   41.7810       0.207770                 NaN            NaN            NaN
  1538.46        2500.00        54.3544       0.838812        1.86664       0.880633E-002            NaN   42.6288       0.302632                 NaN            NaN            NaN
  1535.26        2500.00        53.4394       0.839600        1.85819       0.877251E-002            NaN   43.4536       0.400370                 NaN            NaN            NaN
  1532.05        2500.00        52.4840       0.840434        1.85053       0.874766E-002            NaN   44.0635       0.478447       0.274363                 NaN            NaN
  1528.85        2500.00        51.1214       0.841712        1.85150       0.877232E-002            NaN   43.2414       0.451614        2.48362                 NaN            NaN
  1525.64        2500.00        49.7548       0.842991        1.85247       0.879704E-002            NaN   42.4167       0.424700        4.69954                 NaN            NaN
  1522.44        2500.00        48.3562       0.844352        1.85369       0.881896E-002            NaN   41.6559       0.406186        6.87489                 NaN            NaN
  1519.23        2500.00        46.9531       0.845715        1.85492       0.884093E-002            NaN   40.8925       0.387611        9.05723                 NaN            NaN
  1516.03        2500.00        45.5458       0.847080        1.85614       0.886295E-002            NaN   40.1266       0.368977        11.2466                 NaN            NaN
  1512.82        2500.00        44.1341       0.848448        1.85736       0.888502E-002            NaN   39.3581       0.350282        13.4429                 NaN            NaN
  1509.62        2500.00        42.5562       0.850080        1.86294       0.891013E-002            NaN   38.7442       0.330817        15.2820       0.364891                 NaN
  1506.41        2500.00        40.7148       0.852109        1.87788       0.895016E-002            NaN   38.4389       0.285765        1.58596        16.2356                 NaN
  1503.21        2500.00        40.7132       0.852143        1.87788       0.894986E-002            NaN   38.4400       0.285772        1.58600        16.2361                 NaN
  1500.00        2500.00        37.2837       0.855897        1.90092       0.901966E-002            NaN   38.0765       0.213600        17.7431        3.91730                 NaN
  1496.79        2500.00        37.2821       0.855929        1.90091       0.901934E-002            NaN   38.0774       0.213605        17.7436        3.91739                 NaN
  1493.59        2500.00        37.2806       0.855961        1.90090       0.901902E-002            NaN   38.0784       0.213610        17.7440        3.91748                 NaN
  1490.38        2500.00        37.2791       0.855992        1.90089       0.901871E-002            NaN   38.0793       0.213615        17.7445        3.91757                 NaN
  1487.18        2500.00        31.2435       0.862551        1.92212       0.911631E-002            NaN   37.9311       0.146194        8.17066        19.7148                 NaN
  1483.97        2500.00        31.2422       0.862578        1.92210       0.911594E-002            NaN   37.9318       0.146197        8.17080        19.7152                 NaN
  1480.77        2500.00        31.2408       0.862606        1.92208       0.911558E-002            NaN   37.9326       0.146200        8.17095        19.7156                 NaN
  1477.56        2500.00        31.2395       0.862633        1.92206       0.911522E-002            NaN   37.9334       0.146202        8.17110        19.7161                 NaN
  1474.36        2500.00        31.2381       0.862661        1.92204       0.911485E-002            NaN   37.9341       0.146205        8.17125        19.7165                 NaN
  1471.15        2500.00        31.2368       0.862688        1.92202       0.911449E-002            NaN   37.9349       0.146208        8.17140        19.7169                 NaN
  1467.95        2500.00        31.2354       0.862716        1.92200       0.911413E-002            NaN   37.9356       0.146210        8.17155        19.7174                 NaN
  1464.74        2500.00        31.2340       0.862743        1.92198       0.911377E-002            NaN   37.9364       0.146213        8.17170        19.7178                 NaN
  1461.54        2500.00        21.7478       0.872796        1.86988       0.912983E-002            NaN   38.9100       0.362845        21.0101        15.2174                 NaN
  1458.33        2500.00        20.7594       0.873828        1.85484       0.911424E-002            NaN   39.1208       0.425058        15.9809        20.9761                 NaN
  1455.13        2500.00        19.1761       0.874956        1.84650       0.905307E-002            NaN   38.9716       0.598533        16.5511        21.5157       0.456579     
  1451.92        2500.00        19.1752       0.874976        1.84647       0.905262E-002            NaN   38.9720       0.598538        16.5512        21.5160       0.456611     
  1448.72        2500.00        16.0498       0.876795        1.82056       0.887077E-002            NaN   38.5018        1.07694        17.3622        22.6987        1.60434     
  1445.51        2500.00        16.0491       0.876812        1.82052       0.887031E-002            NaN   38.5021        1.07694        17.3624        22.6989        1.60445     
  1442.31        2500.00        16.0483       0.876828        1.82048       0.886985E-002            NaN   38.5024        1.07695        17.3625        22.6992        1.60455     
  1439.10        2500.00        16.0476       0.876845        1.82044       0.886940E-002            NaN   38.5027        1.07696        17.3626        22.6994        1.60466     
  1435.90        2500.00        11.6357       0.878730        1.71008       0.840708E-002            NaN   37.3125        2.22036        24.4902        18.3980        3.34608     
  1432.69        2500.00        11.6352       0.878743        1.71004       0.840661E-002            NaN   37.3126        2.22036        24.4903        18.3981        3.34629     
  1429.49        2500.00        11.6347       0.878756        1.71000       0.840615E-002            NaN   37.3127        2.22036        24.4905        18.3981        3.34650     
  1426.28        2500.00        11.6342       0.878769        1.70995       0.840568E-002            NaN   37.3129        2.22037        24.4906        18.3981        3.34671     
  1423.08        2500.00        11.6337       0.878781        1.70991       0.840522E-002            NaN   37.3130        2.22037        24.4908        18.3982        3.34692     
  1419.87        2500.00        11.6332       0.878794        1.70986       0.840475E-002            NaN   37.3131        2.22037        24.4909        18.3982        3.34713     
  1416.67        2500.00        11.6326       0.878807        1.70982       0.840429E-002            NaN   37.3133        2.22038        24.4911        18.3983        3.34734     
  1413.46        2500.00        11.6321       0.878820        1.70978       0.840383E-002            NaN   37.3134        2.22038        24.4912        18.3983        3.34754     
  1410.26        2500.00        6.28749       0.879046        1.33956       0.718728E-002            NaN   34.6134        5.08022        26.6219        19.3798        5.79143     
  1407.05        2500.00        5.78815       0.878874        1.28053       0.700791E-002  0.658156E-002   34.1925        5.49175        19.4435        26.8631        6.04799     
  1403.85        2500.00        5.30471       0.878639        1.21423       0.681833E-002  0.363314E-001   33.5433        5.92272        27.3120        19.4794        6.30191     
  1400.64        2500.00        5.30452       0.878647        1.21419       0.681792E-002  0.363324E-001   33.5432        5.92270        27.3120        19.4793        6.30227     
  1397.44        2500.00        4.39952       0.878059        1.07293       0.641671E-002  0.971108E-001   32.1937        6.83018        19.5188        28.2088        6.79446     
  1394.23        2500.00        4.39936       0.878066        1.07290       0.641632E-002  0.971134E-001   32.1936        6.83015        19.5187        28.2088        6.79484     
  1391.03        2500.00        4.39921       0.878074        1.07287       0.641593E-002  0.971160E-001   32.1935        6.83012        19.5187        28.2088        6.79522     
  1387.82        2500.00        4.39905       0.878081        1.07283       0.641554E-002  0.971186E-001   32.1934        6.83009        19.5186        28.2088        6.79561     
  1384.62        2500.00        2.77990       0.876478       0.753483       0.551461E-002  0.223906        29.2707        8.84566        30.0296        19.4783        7.73647     
  1381.41        2500.00        2.77981       0.876484       0.753458       0.551427E-002  0.223912        29.2706        8.84562        30.0295        19.4782        7.73690     
  1378.21        2500.00        2.77972       0.876490       0.753434       0.551393E-002  0.223917        29.2705        8.84557        30.0295        19.4781        7.73732     
  1375.00        2500.00        2.77963       0.876496       0.753409       0.551359E-002  0.223923        29.2704        8.84552        30.0294        19.4780        7.73775     
  1371.79        2500.00        1.33821       0.874336       0.378418       0.445806E-002  0.359340        25.9797        11.1741        31.9612        19.2849        8.64538     
  1368.59        2500.00        1.33817       0.874340       0.378405       0.445778E-002  0.359348        25.9795        11.1741        31.9611        19.2848        8.64584     
  1365.38        2500.00       0.663911       0.873041       0.166614       0.386071E-002  0.431170        24.1621        12.4779        32.9979        19.1294        9.09400     
  1362.18        2500.00       0.335560       0.872334       0.539219E-001  0.354249E-002  0.468243        23.2043        13.1694        19.0363        33.5386        9.31788     
  1358.97        2500.00       0.240503E-001  0.872128                 NaN  0.338653E-002  0.487863        22.7466        13.5046        33.8552        18.9911        9.51508     
  1355.77        2500.00                 NaN  0.872120                 NaN  0.337406E-002  0.483587        23.0174        13.5207        33.4683        19.0811        9.55335     
  1352.56        2500.00                 NaN  0.872087                 NaN  0.336085E-002  0.479818        23.2938        13.5365        19.1587        33.0754        9.58039     
  1349.36        2500.00                 NaN  0.872091                 NaN  0.336064E-002  0.479829        23.2936        13.5364        19.1585        33.0753        9.58089     
  1346.15        2500.00                 NaN  0.872025                 NaN  0.333497E-002  0.471798        23.8466        13.5676        32.2909        19.3154        9.63235     
  1342.95        2500.00                 NaN  0.872029                 NaN  0.333476E-002  0.471808        23.8464        13.5675        32.2908        19.3152        9.63286     
  1339.74        2500.00                 NaN  0.872032                 NaN  0.333455E-002  0.471819        23.8462        13.5674        32.2907        19.3151        9.63336     
  1336.54        2500.00                 NaN  0.872036                 NaN  0.333434E-002  0.471830        23.8461        13.5673        32.2905        19.3150        9.63387     
  1333.33        2500.00                 NaN  0.871903                 NaN  0.328420E-002  0.458910        24.8732        13.6260        19.5655        30.8666        9.73466     
  1330.13        2500.00                 NaN  0.871907                 NaN  0.328399E-002  0.458920        24.8731        13.6259        19.5653        30.8665        9.73517     
  1326.92        2500.00                 NaN  0.871910                 NaN  0.328379E-002  0.458930        24.8729        13.6258        19.5652        30.8663        9.73568     
  1323.72        2500.00                 NaN  0.871914                 NaN  0.328358E-002  0.458941        24.8727        13.6257        19.5650        30.8662        9.73620     
  1320.51        2500.00                 NaN  0.871917                 NaN  0.328337E-002  0.458951        24.8726        13.6256        19.5649        30.8661        9.73671     
  1317.31        2500.00                 NaN  0.871921                 NaN  0.328317E-002  0.458961        24.8724        13.6255        19.5647        30.8660        9.73722     
  1314.10        2500.00                 NaN  0.871924                 NaN  0.328296E-002  0.458972        24.8723        13.6254        19.5646        30.8659        9.73773     
  1310.90        2500.00                 NaN  0.871927                 NaN  0.328276E-002  0.458982        24.8721        13.6253        19.5644        30.8658        9.73824     
  1307.69        2500.00                 NaN  0.871680                 NaN  0.318614E-002  0.442449        26.6929        13.7280        28.4244        19.9097        9.92771     
  1304.49        2500.00                 NaN  0.871683                 NaN  0.318594E-002  0.442459        26.6927        13.7279        28.4243        19.9095        9.92823     
  1301.28        2500.00                 NaN  0.871686                 NaN  0.318574E-002  0.442469        26.6925        13.7278        28.4242        19.9094        9.92875     
  1298.08        2500.00                 NaN  0.871689                 NaN  0.318554E-002  0.442479        26.6924        13.7277        28.4241        19.9092        9.92927     
  1294.87        2500.00                 NaN  0.871692                 NaN  0.318535E-002  0.442488        26.6922        13.7276        28.4240        19.9091        9.92979     
  1291.67        2500.00                 NaN  0.871695                 NaN  0.318515E-002  0.442498        26.6920        13.7275        28.4239        19.9089        9.93031     
  1288.46        2500.00                 NaN  0.871699                 NaN  0.318495E-002  0.442508        26.6919        13.7274        28.4238        19.9087        9.93082     
  1285.26        2500.00                 NaN  0.871701                 NaN  0.318475E-002  0.442517        26.6917        13.7273        28.4237        19.9086        9.93134     
  1282.05        2500.00                 NaN  0.871480                 NaN  0.309252E-002  0.436339        28.2605        13.8128        26.3885        20.1216        10.1058     
  1278.85        2500.00                 NaN  0.871483                 NaN  0.309233E-002  0.436349        28.2603        13.8127        26.3884        20.1214        10.1063     
  1275.64        2500.00                 NaN  0.871486                 NaN  0.309214E-002  0.436358        28.2601        13.8126        26.3883        20.1213        10.1068     
  1272.44        2500.00                 NaN  0.871489                 NaN  0.309195E-002  0.436368        28.2599        13.8125        26.3882        20.1211        10.1074     
  1269.23        2500.00                 NaN  0.871492                 NaN  0.309175E-002  0.436377        28.2597        13.8124        26.3881        20.1210        10.1079     
  1266.03        2500.00                 NaN  0.871494                 NaN  0.309156E-002  0.436387        28.2596        13.8123        26.3880        20.1208        10.1084     
  1262.82        2500.00                 NaN  0.871497                 NaN  0.309137E-002  0.436396        28.2594        13.8121        26.3879        20.1206        10.1089     
  1259.62        2500.00                 NaN  0.871500                 NaN  0.309118E-002  0.436405        28.2592        13.8120        26.3878        20.1205        10.1095     
  1256.41        2500.00                 NaN  0.871302                 NaN  0.300165E-002  0.439127        29.6268        13.8825        24.6604        20.2464        10.2705     
  1253.21        2500.00                 NaN  0.871305                 NaN  0.300147E-002  0.439137        29.6266        13.8824        24.6603        20.2462        10.2711     
  1250.00        2500.00                 NaN  0.871307                 NaN  0.300128E-002  0.439146        29.6264        13.8823        24.6602        20.2460        10.2716     
  1246.79        2500.00                 NaN  0.871310                 NaN  0.300110E-002  0.439155        29.6262        13.8822        24.6601        20.2459        10.2721     
  1243.59        2500.00                 NaN  0.871312                 NaN  0.300091E-002  0.439165        29.6261        13.8820        24.6601        20.2457        10.2727     
  1240.38        2500.00                 NaN  0.871314                 NaN  0.300073E-002  0.439174        29.6259        13.8819        24.6600        20.2455        10.2732     
  1237.18        2500.00                 NaN  0.871317                 NaN  0.300054E-002  0.439183        29.6257        13.8818        24.6599        20.2454        10.2737     
  1233.97        2500.00                 NaN  0.871319                 NaN  0.300036E-002  0.439192        29.6255        13.8817        24.6598        20.2452        10.2743     
  1230.77        2500.00                 NaN  0.871139                 NaN  0.291296E-002  0.449421        30.8294        13.9399        23.1728        20.3093        10.4251     
  1227.56        2500.00                 NaN  0.871141                 NaN  0.291278E-002  0.449431        30.8292        13.9398        23.1728        20.3091        10.4256     
  1224.36        2500.00                 NaN  0.871143                 NaN  0.291260E-002  0.449440        30.8290        13.9397        23.1727        20.3090        10.4262     
  1221.15        2500.00                 NaN  0.871146                 NaN  0.291242E-002  0.449449        30.8288        13.9395        23.1726        20.3088        10.4267     
  1217.95        2500.00                 NaN  0.871148                 NaN  0.291224E-002  0.449459        30.8286        13.9394        23.1726        20.3086        10.4273     
  1214.74        2500.00                 NaN  0.871150                 NaN  0.291207E-002  0.449468        30.8284        13.9393        23.1725        20.3084        10.4278     
  1211.54        2500.00                 NaN  0.871152                 NaN  0.291189E-002  0.449477        30.8282        13.9392        23.1724        20.3083        10.4283     
  1208.33        2500.00                 NaN  0.871154                 NaN  0.291171E-002  0.449486        30.8280        13.9391        23.1724        20.3081        10.4289     
  1205.13        2500.00                 NaN  0.870999                 NaN  0.282557E-002  0.465881        31.9133        13.9844        21.8528        20.3446        10.5651     
  1201.92        2500.00                 NaN  0.871001                 NaN  0.282539E-002  0.465890        31.9131        13.9842        21.8528        20.3445        10.5657     
  1198.72        2500.00                 NaN  0.871003                 NaN  0.282522E-002  0.465900        31.9129        13.9841        21.8527        20.3443        10.5662     
  1195.51        2500.00                 NaN  0.871004                 NaN  0.282505E-002  0.465909        31.9127        13.9840        21.8526        20.3441        10.5668     
  1192.31        2500.00                 NaN  0.871006                 NaN  0.282488E-002  0.465919        31.9125        13.9839        21.8526        20.3439        10.5673     
  1189.10        2500.00                 NaN  0.871008                 NaN  0.282470E-002  0.465928        31.9123        13.9838        21.8525        20.3438        10.5678     
  1185.90        2500.00                 NaN  0.871010                 NaN  0.282453E-002  0.465938        31.9121        13.9837        21.8525        20.3436        10.5684     
  1182.69        2500.00                 NaN  0.871012                 NaN  0.282436E-002  0.465947        31.9119        13.9835        21.8524        20.3434        10.5689     
  1179.49        2500.00                 NaN  0.870865                 NaN  0.273872E-002  0.488348        32.8879        14.0203        20.3407        20.6891        10.7001     
  1176.28        2500.00                 NaN  0.870867                 NaN  0.273855E-002  0.488358        32.8877        14.0202        20.3405        20.6890        10.7006     
  1173.08        2500.00                 NaN  0.870868                 NaN  0.273838E-002  0.488368        32.8875        14.0201        20.3403        20.6890        10.7012     
  1169.87        2500.00                 NaN  0.870870                 NaN  0.273822E-002  0.488378        32.8873        14.0199        20.3401        20.6889        10.7017     
  1166.67        2500.00                 NaN  0.870871                 NaN  0.273805E-002  0.488387        32.8871        14.0198        20.3399        20.6888        10.7022     
  1163.46        2500.00                 NaN  0.870873                 NaN  0.273788E-002  0.488397        32.8869        14.0197        20.3398        20.6888        10.7028     
  1160.26        2500.00                 NaN  0.870874                 NaN  0.273772E-002  0.488407        32.8867        14.0196        20.3396        20.6887        10.7033     
  1157.05        2500.00                 NaN  0.870876                 NaN  0.273755E-002  0.488416        32.8865        14.0195        20.3394        20.6887        10.7039     
  1153.85        2500.00                 NaN  0.870753                 NaN  0.265370E-002  0.516380        33.7847        14.0441        19.6326        20.3276        10.8211     
  1150.64        2500.00                 NaN  0.870754                 NaN  0.265354E-002  0.516390        33.7845        14.0440        19.6326        20.3274        10.8216     
  1147.44        2500.00                 NaN  0.870756                 NaN  0.265338E-002  0.516400        33.7843        14.0439        19.6325        20.3272        10.8222     
  1144.23        2500.00                 NaN  0.870757                 NaN  0.265322E-002  0.516410        33.7841        14.0438        19.6325        20.3270        10.8227     
  1141.03        2500.00                 NaN  0.870758                 NaN  0.265306E-002  0.516421        33.7839        14.0437        19.6324        20.3269        10.8233     
  1137.82        2500.00                 NaN  0.870759                 NaN  0.265290E-002  0.516431        33.7837        14.0435        19.6324        20.3267        10.8238     
  1134.62        2500.00                 NaN  0.870760                 NaN  0.265274E-002  0.516441        33.7835        14.0434        19.6324        20.3265        10.8244     
  1131.41        2500.00                 NaN  0.870762                 NaN  0.265258E-002  0.516451        33.7833        14.0433        19.6323        20.3263        10.8249     
  1128.21        2500.00                 NaN  0.870652                 NaN  0.256975E-002  0.549631        34.6148        14.0592        18.6724        20.2962        10.9346     
  1125.00        2500.00                 NaN  0.870653                 NaN  0.256959E-002  0.549641        34.6146        14.0590        18.6724        20.2960        10.9351     
  1121.79        2500.00                 NaN  0.870654                 NaN  0.256944E-002  0.549652        34.6144        14.0589        18.6723        20.2958        10.9357     
  1118.59        2500.00                 NaN  0.870655                 NaN  0.256929E-002  0.549662        34.6142        14.0588        18.6723        20.2956        10.9362     
  1115.38        2500.00                 NaN  0.870656                 NaN  0.256913E-002  0.549673        34.6140        14.0587        18.6722        20.2954        10.9368     
  1112.18        2500.00                 NaN  0.870657                 NaN  0.256898E-002  0.549683        34.6138        14.0585        18.6722        20.2952        10.9373     
  1108.97        2500.00                 NaN  0.870657                 NaN  0.256882E-002  0.549694        34.6135        14.0584        18.6722        20.2951        10.9379     
  1105.77        2500.00                 NaN  0.870658                 NaN  0.256867E-002  0.549704        34.6133        14.0583        18.6721        20.2949        10.9384     
  1102.56        2500.00                 NaN  0.870569                 NaN  0.248556E-002  0.587298        35.3973        14.0641        17.7747        20.2675        11.0361     
  1099.36        2500.00                 NaN  0.870570                 NaN  0.248541E-002  0.587309        35.3971        14.0640        17.7747        20.2673        11.0367     
  1096.15        2500.00                 NaN  0.870570                 NaN  0.248526E-002  0.587320        35.3968        14.0638        17.7746        20.2671        11.0373     
  1092.95        2500.00                 NaN  0.870571                 NaN  0.248511E-002  0.587331        35.3966        14.0637        17.7746        20.2669        11.0378     
  1089.74        2500.00                 NaN  0.870572                 NaN  0.248496E-002  0.587342        35.3964        14.0636        17.7746        20.2667        11.0384     
  1086.54        2500.00                 NaN  0.870572                 NaN  0.248481E-002  0.587353        35.3962        14.0634        17.7745        20.2665        11.0389     
  1083.33        2500.00                 NaN  0.870573                 NaN  0.248466E-002  0.587364        35.3960        14.0633        17.7745        20.2663        11.0395     
  1080.13        2500.00                 NaN  0.870573                 NaN  0.248451E-002  0.587375        35.3958        14.0632        17.7745        20.2661        11.0400     
  1076.92        2500.00                 NaN  0.870491                 NaN  0.240086E-002  0.630904        36.1299        14.0608        16.9544        20.2178        11.1333     
  1073.72        2500.00                 NaN  0.870492                 NaN  0.240072E-002  0.630916        36.1296        14.0607        16.9543        20.2176        11.1339     
  1070.51        2500.00                 NaN  0.870492                 NaN  0.240058E-002  0.630928        36.1294        14.0606        16.9543        20.2174        11.1344     
  1067.31        2500.00                 NaN  0.870493                 NaN  0.240043E-002  0.630939        36.1292        14.0604        16.9543        20.2172        11.1350     
  1064.10        2500.00                 NaN  0.870493                 NaN  0.240029E-002  0.630951        36.1290        14.0603        16.9543        20.2170        11.1356     
  1060.90        2500.00                 NaN  0.870493                 NaN  0.240015E-002  0.630963        36.1288        14.0602        16.9542        20.2168        11.1361     
  1057.69        2500.00                 NaN  0.870494                 NaN  0.240000E-002  0.630974        36.1286        14.0600        16.9542        20.2167        11.1367     
  1054.49        2500.00                 NaN  0.870494                 NaN  0.239986E-002  0.630986        36.1283        14.0599        16.9542        20.2165        11.1372     
  1051.28        2500.00                 NaN  0.870427                 NaN  0.232050E-002  0.679142        36.8304        14.0487        20.1662        16.1809        11.2219     
  1048.08        2500.00                 NaN  0.870427                 NaN  0.232036E-002  0.679154        36.8301        14.0486        20.1660        16.1809        11.2225     
  1044.87        2500.00                 NaN  0.870427                 NaN  0.232022E-002  0.679167        36.8299        14.0485        20.1658        16.1809        11.2230     
  1041.67        2500.00                 NaN  0.870427                 NaN  0.232008E-002  0.679179        36.8297        14.0483        20.1656        16.1809        11.2236     
  1038.46        2500.00                 NaN  0.870427                 NaN  0.231995E-002  0.679191        36.8295        14.0482        20.1654        16.1809        11.2241     
  1035.26        2500.00                 NaN  0.870427                 NaN  0.231981E-002  0.679204        36.8293        14.0481        20.1652        16.1808        11.2247     
  1032.05        2500.00                 NaN  0.870427                 NaN  0.231967E-002  0.679216        36.8291        14.0479        20.1650        16.1808        11.2253     
  1028.85        2500.00                 NaN  0.870427                 NaN  0.231954E-002  0.679228        36.8288        14.0478        20.1648        16.1808        11.2258     
  1025.64        2500.00                 NaN  0.870384                 NaN  0.223836E-002  0.732662        37.5065        14.0248        15.4451        20.1217        11.2967     
  1022.44        2500.00                 NaN  0.870384                 NaN  0.223823E-002  0.732675        37.5063        14.0246        15.4451        20.1215        11.2972     
  1019.23        2500.00                 NaN  0.870384                 NaN  0.223809E-002  0.732689        37.5061        14.0245        15.4451        20.1212        11.2978     
  1016.03        2500.00                 NaN  0.870383                 NaN  0.223796E-002  0.732702        37.5059        14.0244        15.4450        20.1210        11.2984     
  1012.82        2500.00                 NaN  0.870383                 NaN  0.223783E-002  0.732715        37.5056        14.0242        15.4450        20.1208        11.2989     
  1009.62        2500.00                 NaN  0.870383                 NaN  0.223770E-002  0.732728        37.5054        14.0241        15.4450        20.1206        11.2995     
  1006.41        2500.00                 NaN  0.870383                 NaN  0.223757E-002  0.732741        37.5052        14.0240        15.4450        20.1204        11.3000     
  1003.21        2500.00                 NaN  0.870382                 NaN  0.223743E-002  0.732754        37.5050        14.0238        15.4450        20.1202        11.3006     
  1000.00        2500.00                 NaN  0.870351                 NaN  0.216024E-002  0.792358        38.1581        13.9913        14.7528        20.0682        11.3647     
