|6.6.6
Archiving\03_Data\fracLP/QFM_m3.5/KHA22/KHA22_6.tab                       
           1
T(K)    
  0.000000000000000E+000
  0.000000000000000E+000
           0
           3
T(K)           P(bar)         rho,kg/m3     
  2000.00        500.000        5145.98     
  1997.49        500.000        5146.73     
  1994.99        500.000        5147.49     
  1992.48        500.000        5148.24     
  1989.97        500.000        5149.00     
  1987.47        500.000        5149.75     
  1984.96        500.000        5150.50     
  1982.46        500.000        5151.26     
  1979.95        500.000        5152.01     
  1977.44        500.000        5152.76     
  1974.94        500.000        5153.51     
  1972.43        500.000        5154.26     
  1969.92        500.000        5155.01     
  1967.42        500.000        5155.76     
  1964.91        500.000        5156.51     
  1962.41        500.000        5157.26     
  1959.90        500.000        5158.01     
  1957.39        500.000        5158.76     
  1954.89        500.000        5159.51     
  1952.38        500.000        5160.26     
  1949.87        500.000        5161.00     
  1947.37        500.000        5161.75     
  1944.86        500.000        5162.50     
  1942.36        500.000        5163.24     
  1939.85        500.000        5163.99     
  1937.34        500.000        5164.74     
  1934.84        500.000        5165.48     
  1932.33        500.000        5166.22     
  1929.82        500.000        5166.97     
  1927.32        500.000        5167.71     
  1924.81        500.000        5168.46     
  1922.31        500.000        5169.20     
  1919.80        500.000        5169.94     
  1917.29        500.000        5170.68     
  1914.79        500.000        5171.42     
  1912.28        500.000        5109.23     
  1909.77        500.000        2883.37     
  1907.27        500.000        3135.55     
  1904.76        500.000        3135.96     
  1902.26        500.000        3137.25     
  1899.75        500.000        3138.57     
  1897.24        500.000        3140.04     
  1894.74        500.000        3141.50     
  1892.23        500.000        3143.19     
  1889.72        500.000        3144.55     
  1887.22        500.000        3146.12     
  1884.71        500.000        3147.24     
  1882.21        500.000        3148.81     
  1879.70        500.000        3149.03     
  1877.19        500.000        3151.79     
  1874.69        500.000        3153.34     
  1872.18        500.000        3154.86     
  1869.67        500.000        3156.02     
  1867.17        500.000        3158.07     
  1864.66        500.000        3158.81     
  1862.16        500.000        3160.13     
  1859.65        500.000        3162.28     
  1857.14        500.000        3182.25     
  1854.64        500.000        3188.88     
  1852.13        500.000        3190.49     
  1849.62        500.000        3191.96     
  1847.12        500.000        3193.91     
  1844.61        500.000        3195.31     
  1842.11        500.000        3196.57     
  1839.60        500.000        3197.75     
  1837.09        500.000        3199.74     
  1834.59        500.000        3201.90     
  1832.08        500.000        3203.00     
  1829.57        500.000        3204.49     
  1827.07        500.000        3205.92     
  1824.56        500.000        3207.70     
  1822.06        500.000        3209.72     
  1819.55        500.000        3210.63     
  1817.04        500.000        3212.22     
  1814.54        500.000        3214.94     
  1812.03        500.000        3215.11     
  1809.52        500.000        3216.68     
  1807.02        500.000        3218.96     
  1804.51        500.000        3219.66     
  1802.01        500.000        3221.29     
  1799.50        500.000        3223.37     
  1796.99        500.000        3224.47     
  1794.49        500.000        3226.90     
  1791.98        500.000        3227.37     
  1789.47        500.000        3229.29     
  1786.97        500.000        3231.03     
  1784.46        500.000        3232.50     
  1781.95        500.000        3234.01     
  1779.45        500.000        3235.44     
  1776.94        500.000        3238.05     
  1774.44        500.000        3238.19     
  1771.93        500.000        3240.20     
  1769.42        500.000        3241.50     
  1766.92        500.000        3243.38     
  1764.41        500.000        3244.93     
  1761.90        500.000        3245.86     
  1759.40        500.000        3248.26     
  1756.89        500.000        3248.75     
  1754.39        500.000        3250.58     
  1751.88        500.000        3252.63     
  1749.37        500.000        3254.56     
  1746.87        500.000        3255.24     
  1744.36        500.000        3257.72     
  1741.85        500.000        3258.26     
  1739.35        500.000        3260.16     
  1736.84        500.000        3261.06     
  1734.34        500.000        3262.83     
  1731.83        500.000        3264.36     
  1729.32        500.000        3265.53     
  1726.82        500.000        3267.64     
  1724.31        500.000        3269.87     
  1721.80        500.000        3270.47     
  1719.30        500.000        3273.36     
  1716.79        500.000        3273.12     
  1714.29        500.000        3275.85     
  1711.78        500.000        3276.36     
  1709.27        500.000        3277.50     
  1706.77        500.000        3279.50     
  1704.26        500.000        3280.48     
  1701.75        500.000        3286.75     
  1699.25        500.000        2854.96     
  1696.74        500.000        3285.31     
  1694.24        500.000        3286.45     
  1691.73        500.000        3288.49     
  1689.22        500.000        3290.43     
  1686.72        500.000        3292.82     
  1684.21        500.000        3293.41     
  1681.70        500.000        3294.28     
  1679.20        500.000        3295.41     
  1676.69        500.000        3297.28     
  1674.19        500.000        3298.89     
  1671.68        500.000        3300.42     
  1669.17        500.000        3301.11     
  1666.67        500.000        3302.18     
  1664.16        500.000        3303.87     
  1661.65        500.000        3306.00     
  1659.15        500.000        3306.81     
  1656.64        500.000        3308.27     
  1654.14        500.000        3309.66     
  1651.63        500.000        3311.02     
  1649.12        500.000        3311.95     
  1646.62        500.000        3312.95     
  1644.11        500.000        3315.11     
  1641.60        500.000        3316.72     
  1639.10        500.000        3317.64     
  1636.59        500.000        3318.99     
  1634.09        500.000        3320.18     
  1631.58        500.000        3321.49     
  1629.07        500.000        3323.47     
  1626.57        500.000        3324.22     
  1624.06        500.000        3325.33     
  1621.55        500.000        3327.00     
  1619.05        500.000        3328.45     
  1616.54        500.000        3329.85     
  1614.04        500.000        3327.74     
  1611.53        500.000        3331.74     
  1609.02        500.000        3334.08     
  1606.52        500.000        3334.72     
  1604.01        500.000        3336.09     
  1601.50        500.000        3336.79     
  1599.00        500.000        3338.00     
  1596.49        500.000        3339.44     
  1593.98        500.000        3340.76     
  1591.48        500.000        3243.86     
  1588.97        500.000        3237.24     
  1586.47        500.000        3238.55     
  1583.96        500.000        3238.78     
  1581.45        500.000        3240.28     
  1578.95        500.000        3239.77     
  1576.44        500.000        3240.93     
  1573.93        500.000        3241.84     
  1571.43        500.000        3242.46     
  1568.92        500.000        3243.22     
  1566.42        500.000        3243.14     
  1563.91        500.000        3244.41     
  1561.40        500.000        3244.91     
  1558.90        500.000        3246.38     
  1556.39        500.000        3246.91     
  1553.88        500.000        3246.10     
  1551.38        500.000        3247.98     
  1548.87        500.000        3247.86     
  1546.37        500.000        3249.27     
  1543.86        500.000        3249.77     
  1541.35        500.000        3250.87     
  1538.85        500.000        3251.30     
  1536.34        500.000        3253.50     
  1533.83        500.000        3251.92     
  1531.33        500.000        3252.13     
  1528.82        500.000        3253.34     
  1526.32        500.000        3253.40     
  1523.81        500.000        3255.08     
  1521.30        500.000        3255.80     
  1518.80        500.000        3256.37     
  1516.29        500.000        3256.86     
  1513.78        500.000        3257.36     
  1511.28        500.000        3258.81     
  1508.77        500.000        3263.65     
  1506.27        500.000        3260.27     
  1503.76        500.000        3261.47     
  1501.25        500.000        3261.55     
  1498.75        500.000        3262.85     
  1496.24        500.000        3263.39     
  1493.73        500.000        3264.32     
  1491.23        500.000        3266.06     
  1488.72        500.000        3266.09     
  1486.22        500.000        3267.33     
  1483.71        500.000        3268.33     
  1481.20        500.000        3260.01     
  1478.70        500.000        3255.99     
  1476.19        500.000        3257.21     
  1473.68        500.000        3258.32     
  1471.18        500.000        3259.20     
  1468.67        500.000        3260.28     
  1466.17        500.000        3262.01     
  1463.66        500.000        3263.14     
  1461.15        500.000        3264.12     
  1458.65        500.000        3268.08     
  1456.14        500.000        3265.62     
  1453.63        500.000        3267.97     
  1451.13        500.000        3270.04     
  1448.62        500.000        3271.37     
  1446.12        500.000        3272.42     
  1443.61        500.000        3273.21     
  1441.10        500.000        3274.89     
  1438.60        500.000        3275.97     
  1436.09        500.000        3274.11     
  1433.58        500.000        3260.08     
  1431.08        500.000        3261.97     
  1428.57        500.000        3263.62     
  1426.07        500.000        3265.54     
  1423.56        500.000        3267.12     
  1421.05        500.000        3268.88     
  1418.55        500.000        3270.02     
  1416.04        500.000        3272.41     
  1413.53        500.000        3235.45     
  1411.03        500.000        3094.48     
  1408.52        500.000        3096.47     
  1406.02        500.000        3098.28     
  1403.51        500.000        3100.04     
  1401.00        500.000        3101.97     
  1398.50        500.000        3103.94     
  1395.99        500.000        3105.85     
  1393.48        500.000        3107.77     
  1390.98        500.000        3109.54     
  1388.47        500.000        3111.54     
  1385.96        500.000        3113.40     
  1383.46        500.000        3115.34     
  1380.95        500.000        3117.20     
  1378.45        500.000        3119.31     
  1375.94        500.000        3121.22     
  1373.43        500.000        3122.92     
  1370.93        500.000        3124.76     
  1368.42        500.000        3126.51     
  1365.91        500.000        3128.99     
  1363.41        500.000        3130.81     
  1360.90        500.000        3132.70     
  1358.40        500.000        3134.63     
  1355.89        500.000        3136.47     
  1353.38        500.000        3138.31     
  1350.88        500.000        3140.60     
  1348.37        500.000        3142.27     
  1345.86        500.000        3144.54     
  1343.36        500.000        3146.42     
  1340.85        500.000        3148.40     
  1338.35        500.000        3150.32     
  1335.84        500.000        3152.39     
  1333.33        500.000        3154.09     
  1330.83        500.000        3156.32     
  1328.32        500.000        3158.41     
  1325.81        500.000        3160.15     
  1323.31        500.000        3162.39     
  1320.80        500.000        3164.25     
  1318.30        500.000        3166.11     
  1315.79        500.000        3168.28     
  1313.28        500.000        3170.45     
  1310.78        500.000        3172.21     
  1308.27        500.000        3174.27     
  1305.76        500.000        3176.27     
  1303.26        500.000        3188.36     
  1300.75        500.000        3210.00     
  1298.25        500.000        3212.20     
  1295.74        500.000        3213.99     
  1293.23        500.000        3215.61     
  1290.73        500.000        2770.07     
  1288.22        500.000        2765.65     
  1285.71        500.000        2769.54     
  1283.21        500.000        2773.16     
  1280.70        500.000        2776.35     
  1278.20        500.000        2779.32     
  1275.69        500.000        2781.76     
  1273.18        500.000        2784.41     
  1270.68        500.000        2786.77     
  1268.17        500.000        2789.38     
  1265.66        500.000        2790.92     
  1263.16        500.000        2792.98     
  1260.65        500.000        2794.72     
  1258.15        500.000        2796.72     
  1255.64        500.000        2798.11     
  1253.13        500.000        2799.62     
  1250.63        500.000        2801.28     
  1248.12        500.000        2802.63     
  1245.61        500.000        2804.09     
  1243.11        500.000        2805.40     
  1240.60        500.000        2806.61     
  1238.10        500.000        2808.15     
  1235.59        500.000        2808.84     
  1233.08        500.000        2810.55     
  1230.58        500.000        2812.11     
  1228.07        500.000        2813.28     
  1225.56        500.000        2814.38     
  1223.06        500.000        2815.30     
  1220.55        500.000        2816.54     
  1218.05        500.000        2817.41     
  1215.54        500.000        2818.62     
  1213.03        500.000        2819.74     
  1210.53        500.000        2820.75     
  1208.02        500.000        2678.94     
  1205.51        500.000        2665.20     
  1203.01        500.000        2655.53     
  1200.50        500.000        2657.22     
  1197.99        500.000        2667.35     
  1195.49        500.000        2713.63     
  1192.98        500.000        2650.45     
  1190.48        500.000        2635.06     
  1187.97        500.000        2630.91     
  1185.46        500.000        2630.98     
  1182.96        500.000        2631.04     
  1180.45        500.000        2631.27     
  1177.94        500.000        2631.38     
  1175.44        500.000        2631.41     
  1172.93        500.000        2631.53     
  1170.43        500.000        2631.68     
  1167.92        500.000        2631.74     
  1165.41        500.000        2630.17     
  1162.91        500.000        2631.95     
  1160.40        500.000        2630.30     
  1157.89        500.000        2630.34     
  1155.39        500.000        2632.33     
  1152.88        500.000        2632.45     
  1150.38        500.000        2632.56     
  1147.87        500.000        2632.64     
  1145.36        500.000        2632.79     
  1142.86        500.000        2630.58     
  1140.35        500.000        2630.63     
  1137.84        500.000        2630.74     
  1135.34        500.000        2630.80     
  1132.83        500.000        2633.33     
  1130.33        500.000        2633.41     
  1127.82        500.000        2633.49     
  1125.31        500.000        2633.24     
  1122.81        500.000        2631.07     
  1120.30        500.000        2633.85     
  1117.79        500.000        2633.92     
  1115.29        500.000        2633.94     
  1112.78        500.000        2634.14     
  1110.28        500.000        2634.28     
  1107.77        500.000        2631.43     
  1105.26        500.000        2631.51     
  1102.76        500.000        2631.60     
  1100.25        500.000        2631.70     
  1097.74        500.000        2631.82     
  1095.24        500.000        2631.88     
  1092.73        500.000        2635.06     
  1090.23        500.000        2631.92     
  1087.72        500.000        2632.01     
  1085.21        500.000        2632.09     
  1082.71        500.000        2635.48     
  1080.20        500.000        2635.58     
  1077.69        500.000        2634.90     
  1075.19        500.000        2632.39     
  1072.68        500.000        2635.91     
  1070.18        500.000        2633.69     
  1067.67        500.000        2632.65     
  1065.16        500.000        2632.75     
  1062.66        500.000        2631.94     
  1060.15        500.000        2633.67     
  1057.64        500.000        2632.16     
  1055.14        500.000        2633.71     
  1052.63        500.000        2632.40     
  1050.13        500.000        2632.49     
  1047.62        500.000        2632.47     
  1045.11        500.000        2632.56     
  1042.61        500.000        2632.65     
  1040.10        500.000        2632.74     
  1037.59        500.000        2632.85     
  1035.09        500.000        2632.93     
  1032.58        500.000        2633.02     
  1030.08        500.000        2633.11     
  1027.57        500.000        2633.21     
  1025.06        500.000        2634.42     
  1022.56        500.000        2634.49     
  1020.05        500.000        2634.56     
  1017.54        500.000        2634.63     
  1015.04        500.000        2634.71     
  1012.53        500.000        2634.78     
  1010.03        500.000        2634.86     
  1007.52        500.000        2634.93     
  1005.01        500.000        2635.01     
  1002.51        500.000        2635.08     
  1000.00        500.000        2635.16     
