|6.6.6
Archiving\03_Data\eqLP/QFM_m4.75/GRV/GRV_6.tab                            
           1
T(K)    
  0.000000000000000E+000
  0.000000000000000E+000
           0
           3
T(K)           P(bar)         rho,kg/m3     
  2000.00        500.000        3552.33     
  1996.79        500.000        3552.80     
  1993.59        500.000        3553.27     
  1990.38        500.000        3553.75     
  1987.18        500.000        3554.22     
  1983.97        500.000        3554.69     
  1980.77        500.000        3555.17     
  1977.56        500.000        3555.64     
  1974.36        500.000        3556.11     
  1971.15        500.000        3556.58     
  1967.95        500.000        3557.06     
  1964.74        500.000        3557.53     
  1961.54        500.000        3580.69     
  1958.33        500.000        3661.93     
  1955.13        500.000        3739.75     
  1951.92        500.000        3814.38     
  1948.72        500.000        3886.00     
  1945.51        500.000        3953.12     
  1942.31        500.000        4017.71     
  1939.10        500.000        4079.93     
  1935.90        500.000        4139.89     
  1932.69        500.000        4197.72     
  1929.49        500.000        4253.53     
  1926.28        500.000        4307.44     
  1923.08        500.000        4359.53     
  1919.87        500.000        4408.25     
  1916.67        500.000        4455.44     
  1913.46        500.000        4501.17     
  1910.26        500.000        4545.53     
  1907.05        500.000        4588.56     
  1903.85        500.000        4630.32     
  1900.64        500.000        4670.89     
  1897.44        500.000        4710.30     
  1894.23        500.000        4747.34     
  1891.03        500.000        4783.39     
  1887.82        500.000        4818.50     
  1884.62        500.000        4852.71     
  1881.41        500.000        4886.04     
  1878.21        500.000        4918.53     
  1875.00        500.000        4950.22     
  1871.79        500.000        4981.14     
  1868.59        500.000        5010.26     
  1865.38        500.000        5038.72     
  1862.18        500.000        5066.53     
  1858.97        500.000        5093.73     
  1855.77        500.000        5120.32     
  1852.56        500.000        5146.34     
  1849.36        500.000        5171.79     
  1846.15        500.000        5196.71     
  1842.95        500.000        5220.27     
  1839.74        500.000        5243.36     
  1836.54        500.000        5266.00     
  1833.33        500.000        5288.19     
  1830.13        500.000        5309.96     
  1826.92        500.000        5331.31     
  1823.72        500.000        5352.26     
  1820.51        500.000        5372.82     
  1817.31        500.000        5392.29     
  1814.10        500.000        5411.42     
  1810.90        500.000        5430.22     
  1807.69        500.000        5448.69     
  1804.49        500.000        5466.86     
  1801.28        500.000        5484.71     
  1798.08        500.000        5502.27     
  1794.87        500.000        5519.55     
  1791.67        500.000        5531.42     
  1788.46        500.000        5549.89     
  1785.26        500.000        5554.75     
  1782.05        500.000        5559.48     
  1778.85        500.000        5564.16     
  1775.64        500.000        5568.73     
  1772.44        500.000        5573.18     
  1769.23        500.000        5577.53     
  1766.03        500.000        5581.87     
  1762.82        500.000        5586.12     
  1759.62        500.000        5590.27     
  1756.41        500.000        5594.33     
  1753.21        500.000        5284.69     
  1750.00        500.000        4674.52     
  1746.79        500.000        4334.44     
  1743.59        500.000        4119.72     
  1740.38        500.000        3967.34     
  1737.18        500.000        3857.19     
  1733.97        500.000        3773.89     
  1730.77        500.000        3708.72     
  1727.56        500.000        3656.37     
  1724.36        500.000        3613.41     
  1721.15        500.000        3577.55     
  1717.95        500.000        3547.18     
  1714.74        500.000        3520.13     
  1711.54        500.000        3496.84     
  1708.33        500.000        3476.58     
  1705.13        500.000        3458.82     
  1701.92        500.000        3443.11     
  1698.72        500.000        3429.14     
  1695.51        500.000        3416.63     
  1692.31        500.000        3405.38     
  1689.10        500.000        3395.17     
  1685.90        500.000        3385.91     
  1682.69        500.000        3377.48     
  1679.49        500.000        3369.78     
  1676.28        500.000        3362.77     
  1673.08        500.000        3356.33     
  1669.87        500.000        3350.44     
  1666.67        500.000        3349.75     
  1663.46        500.000        3350.78     
  1660.26        500.000        3351.78     
  1657.05        500.000        3352.76     
  1653.85        500.000        3353.71     
  1650.64        500.000        3354.63     
  1647.44        500.000        3355.54     
  1644.23        500.000        3356.42     
  1641.03        500.000        3357.29     
  1637.82        500.000        3358.18     
  1634.62        500.000        3359.05     
  1631.41        500.000        3360.15     
  1628.21        500.000        3359.43     
  1625.00        500.000        3354.72     
  1621.79        500.000        3350.47     
  1618.59        500.000        3346.61     
  1615.38        500.000        3343.09     
  1612.18        500.000        3340.71     
  1608.97        500.000        3338.50     
  1605.77        500.000        3336.45     
  1602.56        500.000        3334.54     
  1599.36        500.000        3332.77     
  1596.15        500.000        3331.11     
  1592.95        500.000        3329.57     
  1589.74        500.000        3328.13     
  1586.54        500.000        3327.19     
  1583.33        500.000        3326.31     
  1580.13        500.000        3325.48     
  1576.92        500.000        3324.70     
  1573.72        500.000        3323.97     
  1570.51        500.000        3323.28     
  1567.31        500.000        3322.63     
  1564.10        500.000        3322.03     
  1560.90        500.000        3321.55     
  1557.69        500.000        3321.11     
  1554.49        500.000        3320.69     
  1551.28        500.000        3320.31     
  1548.08        500.000        3319.95     
  1544.87        500.000        3319.62     
  1541.67        500.000        3319.31     
  1538.46        500.000        3319.02     
  1535.26        500.000        3318.55     
  1532.05        500.000        3317.99     
  1528.85        500.000        3317.58     
  1525.64        500.000        3317.20     
  1522.44        500.000        3317.12     
  1519.23        500.000        3317.17     
  1516.03        500.000        3317.62     
  1512.82        500.000        3317.39     
  1509.62        500.000        3317.85     
  1506.41        500.000        3318.30     
  1503.21        500.000        3318.75     
  1500.00        500.000        3319.20     
  1496.79        500.000        3319.65     
  1493.59        500.000        3320.10     
  1490.38        500.000        3320.56     
  1487.18        500.000        3319.50     
  1483.97        500.000        3319.95     
  1480.77        500.000        3320.40     
  1477.56        500.000        3320.85     
  1474.36        500.000        3321.30     
  1471.15        500.000        3321.74     
  1467.95        500.000        3322.19     
  1464.74        500.000        3322.64     
  1461.54        500.000        3322.52     
  1458.33        500.000        3322.97     
  1455.13        500.000        3323.41     
  1451.92        500.000        3323.86     
  1448.72        500.000        3324.31     
  1445.51        500.000        3324.75     
  1442.31        500.000        3325.20     
  1439.10        500.000        3325.64     
  1435.90        500.000        3325.80     
  1432.69        500.000        3326.25     
  1429.49        500.000        3326.69     
  1426.28        500.000        3327.13     
  1423.08        500.000        3327.58     
  1419.87        500.000        3328.02     
  1416.67        500.000        3328.46     
  1413.46        500.000        3328.90     
  1410.26        500.000        3329.08     
  1407.05        500.000        3329.52     
  1403.85        500.000        3329.97     
  1400.64        500.000        3330.41     
  1397.44        500.000        3330.85     
  1394.23        500.000        3331.29     
  1391.03        500.000        3331.73     
  1387.82        500.000        3332.17     
  1384.62        500.000        3332.31     
  1381.41        500.000        3332.74     
  1378.21        500.000        3333.18     
  1375.00        500.000        3333.62     
  1371.79        500.000        3334.06     
  1368.59        500.000        3334.50     
  1365.38        500.000        3334.93     
  1362.18        500.000        3335.37     
  1358.97        500.000        3335.46     
  1355.77        500.000        3335.90     
  1352.56        500.000        3336.33     
  1349.36        500.000        3336.77     
  1346.15        500.000        3337.20     
  1342.95        500.000        3337.64     
  1339.74        500.000        3338.07     
  1336.54        500.000        3338.51     
  1333.33        500.000        3338.55     
  1330.13        500.000        3338.99     
  1326.92        500.000        3339.42     
  1323.72        500.000        3339.85     
  1320.51        500.000        3340.07     
  1317.31        500.000        3340.45     
  1314.10        500.000        3340.85     
  1310.90        500.000        3341.28     
  1307.69        500.000        3341.78     
  1304.49        500.000        3342.21     
  1301.28        500.000        3342.71     
  1298.08        500.000        3343.07     
  1294.87        500.000        3343.42     
  1291.67        500.000        3343.85     
  1288.46        500.000        3344.28     
  1285.26        500.000        3344.71     
  1282.05        500.000        3344.84     
  1278.85        500.000        3345.27     
  1275.64        500.000        3345.69     
  1272.44        500.000        3346.12     
  1269.23        500.000        3346.55     
  1266.03        500.000        3346.98     
  1262.82        500.000        3347.40     
  1259.62        500.000        3347.83     
  1256.41        500.000        3347.70     
  1253.21        500.000        3348.13     
  1250.00        500.000        3348.55     
  1246.79        500.000        3348.98     
  1243.59        500.000        3349.40     
  1240.38        500.000        3349.82     
  1237.18        500.000        3350.25     
  1233.97        500.000        3350.67     
  1230.77        500.000        3350.59     
  1227.56        500.000        3351.01     
  1224.36        500.000        3351.43     
  1221.15        500.000        3351.86     
  1217.95        500.000        3352.28     
  1214.74        500.000        3352.70     
  1211.54        500.000        3353.12     
  1208.33        500.000        3353.54     
  1205.13        500.000        3353.49     
  1201.92        500.000        3353.91     
  1198.72        500.000        3354.33     
  1195.51        500.000        3354.75     
  1192.31        500.000        3355.17     
  1189.10        500.000        3355.59     
  1185.90        500.000        3356.01     
  1182.69        500.000        3356.43     
  1179.49        500.000        3356.42     
  1176.28        500.000        3356.84     
  1173.08        500.000        3357.26     
  1169.87        500.000        3357.68     
  1166.67        500.000        3357.89     
  1163.46        500.000        3358.25     
  1160.26        500.000        3358.60     
  1157.05        500.000        3359.01     
  1153.85        500.000        3359.30     
  1150.64        500.000        3359.71     
  1147.44        500.000        3360.13     
  1144.23        500.000        3360.54     
  1141.03        500.000        3360.95     
  1137.82        500.000        3361.37     
  1134.62        500.000        3361.78     
  1131.41        500.000        3362.19     
  1128.21        500.000        3362.10     
  1125.00        500.000        3362.51     
  1121.79        500.000        3362.93     
  1118.59        500.000        3363.34     
  1115.38        500.000        3363.51     
  1112.18        500.000        3363.92     
  1108.97        500.000        3364.22     
  1105.77        500.000        3364.58     
  1102.56        500.000        3364.93     
  1099.36        500.000        3365.34     
  1096.15        500.000        3365.75     
  1092.95        500.000        3366.16     
  1089.74        500.000        3366.57     
  1086.54        500.000        3366.98     
  1083.33        500.000        3367.38     
  1080.13        500.000        3367.79     
  1076.92        500.000        3367.77     
  1073.72        500.000        3368.18     
  1070.51        500.000        3368.59     
  1067.31        500.000        3369.00     
  1064.10        500.000        3369.40     
  1060.90        500.000        3369.81     
  1057.69        500.000        3370.22     
  1054.49        500.000        3370.62     
  1051.28        500.000        3370.57     
  1048.08        500.000        3370.98     
  1044.87        500.000        3371.38     
  1041.67        500.000        3371.79     
  1038.46        500.000        3372.19     
  1035.26        500.000        3372.59     
  1032.05        500.000        3373.00     
  1028.85        500.000        3373.40     
  1025.64        500.000        3373.41     
  1022.44        500.000        3373.82     
  1019.23        500.000        3374.22     
  1016.03        500.000        3374.62     
  1012.82        500.000        3375.02     
  1009.62        500.000        3375.42     
  1006.41        500.000        3375.82     
  1003.21        500.000        3376.23     
  1000.00        500.000        3376.25     
