|6.6.6
Archiving\03_Data\fracLP/QFM_m0.5/KHA22/KHA22_6.tab                       
           1
T(K)    
  0.000000000000000E+000
  0.000000000000000E+000
           0
           3
T(K)           P(bar)         rho,kg/m3     
  2000.00        500.000        3976.55     
  1997.49        500.000        2857.80     
  1994.99        500.000        2858.36     
  1992.48        500.000        2858.92     
  1989.97        500.000        2859.48     
  1987.47        500.000        2860.04     
  1984.96        500.000        2860.60     
  1982.46        500.000        2861.16     
  1979.95        500.000        2861.72     
  1977.44        500.000        2862.28     
  1974.94        500.000        2862.84     
  1972.43        500.000        2863.41     
  1969.92        500.000        2863.97     
  1967.42        500.000        2864.53     
  1964.91        500.000        2865.09     
  1962.41        500.000        2865.65     
  1959.90        500.000        2866.21     
  1957.39        500.000        2866.77     
  1954.89        500.000        2867.33     
  1952.38        500.000        2867.89     
  1949.87        500.000        2868.45     
  1947.37        500.000        2869.02     
  1944.86        500.000        2869.58     
  1942.36        500.000        2870.14     
  1939.85        500.000        2870.70     
  1937.34        500.000        2871.26     
  1934.84        500.000        2871.82     
  1932.33        500.000        2872.38     
  1929.82        500.000        2872.94     
  1927.32        500.000        2873.50     
  1924.81        500.000        2874.07     
  1922.31        500.000        2874.63     
  1919.80        500.000        2875.19     
  1917.29        500.000        2875.75     
  1914.79        500.000        2876.31     
  1912.28        500.000        2876.87     
  1909.77        500.000        2877.43     
  1907.27        500.000        2877.99     
  1904.76        500.000        2878.56     
  1902.26        500.000        2879.12     
  1899.75        500.000        2879.68     
  1897.24        500.000        3126.94     
  1894.74        500.000        3128.25     
  1892.23        500.000        3129.61     
  1889.72        500.000        3130.84     
  1887.22        500.000        3132.10     
  1884.71        500.000        3133.67     
  1882.21        500.000        3135.12     
  1879.70        500.000        3136.64     
  1877.19        500.000        3137.83     
  1874.69        500.000        3156.00     
  1872.18        500.000        3163.74     
  1869.67        500.000        3165.06     
  1867.17        500.000        3166.17     
  1864.66        500.000        3167.61     
  1862.16        500.000        3169.18     
  1859.65        500.000        3172.05     
  1857.14        500.000        3171.75     
  1854.64        500.000        3173.70     
  1852.13        500.000        3175.54     
  1849.62        500.000        3176.98     
  1847.12        500.000        3178.11     
  1844.61        500.000        3180.07     
  1842.11        500.000        3181.94     
  1839.60        500.000        2882.24     
  1837.09        500.000        3184.25     
  1834.59        500.000        3185.66     
  1832.08        500.000        3187.00     
  1829.57        500.000        3188.51     
  1827.07        500.000        3190.21     
  1824.56        500.000        3191.63     
  1822.06        500.000        3193.30     
  1819.55        500.000        3194.90     
  1817.04        500.000        3196.41     
  1814.54        500.000        3197.65     
  1812.03        500.000        3198.52     
  1809.52        500.000        3200.29     
  1807.02        500.000        3201.72     
  1804.51        500.000        3203.97     
  1802.01        500.000        3205.32     
  1799.50        500.000        3207.20     
  1796.99        500.000        3208.13     
  1794.49        500.000        3209.62     
  1791.98        500.000        3211.10     
  1789.47        500.000        3212.87     
  1786.97        500.000        3213.77     
  1784.46        500.000        3215.58     
  1781.95        500.000        3221.41     
  1779.45        500.000        2878.84     
  1776.94        500.000        3220.25     
  1774.44        500.000        3221.77     
  1771.93        500.000        3223.07     
  1769.42        500.000        3224.73     
  1766.92        500.000        3225.71     
  1764.41        500.000        3227.83     
  1761.90        500.000        3228.98     
  1759.40        500.000        3230.88     
  1756.89        500.000        3232.51     
  1754.39        500.000        3233.74     
  1751.88        500.000        3235.00     
  1749.37        500.000        3236.25     
  1746.87        500.000        3238.61     
  1744.36        500.000        3240.29     
  1741.85        500.000        3241.30     
  1739.35        500.000        3243.12     
  1736.84        500.000        3244.99     
  1734.34        500.000        3246.65     
  1731.83        500.000        3247.29     
  1729.32        500.000        3248.93     
  1726.82        500.000        3250.66     
  1724.31        500.000        3251.97     
  1721.80        500.000        3253.80     
  1719.30        500.000        3255.18     
  1716.79        500.000        3256.63     
  1714.29        500.000        3258.11     
  1711.78        500.000        3259.79     
  1709.27        500.000        3261.61     
  1706.77        500.000        3263.00     
  1704.26        500.000        3264.19     
  1701.75        500.000        3266.27     
  1699.25        500.000        3267.36     
  1696.74        500.000        3268.72     
  1694.24        500.000        3269.99     
  1691.73        500.000        3271.70     
  1689.22        500.000        3272.16     
  1686.72        500.000        3274.89     
  1684.21        500.000        3276.17     
  1681.70        500.000        3277.40     
  1679.20        500.000        3279.29     
  1676.69        500.000        3280.36     
  1674.19        500.000        3281.98     
  1671.68        500.000        3283.53     
  1669.17        500.000        3284.69     
  1666.67        500.000        3286.76     
  1664.16        500.000        3288.32     
  1661.65        500.000        3289.18     
  1659.15        500.000        3290.80     
  1656.64        500.000        3292.68     
  1654.14        500.000        3293.05     
  1651.63        500.000        3295.21     
  1649.12        500.000        3298.30     
  1646.62        500.000        3298.62     
  1644.11        500.000        3299.53     
  1641.60        500.000        3301.91     
  1639.10        500.000        3302.93     
  1636.59        500.000        3303.80     
  1634.09        500.000        3305.41     
  1631.58        500.000        3307.54     
  1629.07        500.000        3308.58     
  1626.57        500.000        3310.41     
  1624.06        500.000        3311.93     
  1621.55        500.000        3312.88     
  1619.05        500.000        3313.12     
  1616.54        500.000        3316.21     
  1614.04        500.000        3316.79     
  1611.53        500.000        3318.86     
  1609.02        500.000        3319.38     
  1606.52        500.000        3321.30     
  1604.01        500.000        3322.68     
  1601.50        500.000        3323.92     
  1599.00        500.000        3325.14     
  1596.49        500.000        3331.85     
  1593.98        500.000        3327.08     
  1591.48        500.000        3308.95     
  1588.97        500.000        3238.67     
  1586.47        500.000        3234.91     
  1583.96        500.000        3236.17     
  1581.45        500.000        3237.11     
  1578.95        500.000        3237.97     
  1576.44        500.000        3238.35     
  1573.93        500.000        3238.92     
  1571.43        500.000        3240.18     
  1568.92        500.000        3241.10     
  1566.42        500.000        3241.85     
  1563.91        500.000        3242.93     
  1561.40        500.000        3243.41     
  1558.90        500.000        3244.28     
  1556.39        500.000        3245.12     
  1553.88        500.000        3246.06     
  1551.38        500.000        3247.18     
  1548.87        500.000        3247.70     
  1546.37        500.000        3248.04     
  1543.86        500.000        3248.42     
  1541.35        500.000        3249.82     
  1538.85        500.000        3250.70     
  1536.34        500.000        3251.48     
  1533.83        500.000        3252.95     
  1531.33        500.000        3252.54     
  1528.82        500.000        3252.76     
  1526.32        500.000        3254.17     
  1523.81        500.000        3254.70     
  1521.30        500.000        3255.19     
  1518.80        500.000        3255.88     
  1516.29        500.000        3256.50     
  1513.78        500.000        3257.88     
  1511.28        500.000        3264.64     
  1508.77        500.000        3259.40     
  1506.27        500.000        3260.48     
  1503.76        500.000        3265.94     
  1501.25        500.000        3262.30     
  1498.75        500.000        3262.75     
  1496.24        500.000        3263.86     
  1493.73        500.000        3265.18     
  1491.23        500.000        3269.80     
  1488.72        500.000        3267.23     
  1486.22        500.000        3268.28     
  1483.71        500.000        3269.19     
  1481.20        500.000        3270.83     
  1478.70        500.000        3271.40     
  1476.19        500.000        3271.96     
  1473.68        500.000        3273.46     
  1471.18        500.000        3274.27     
  1468.67        500.000        3275.18     
  1466.17        500.000        3277.21     
  1463.66        500.000        3277.82     
  1461.15        500.000        3279.19     
  1458.65        500.000        3279.89     
  1456.14        500.000        3280.97     
  1453.63        500.000        3281.62     
  1451.13        500.000        3283.10     
  1448.62        500.000        3284.03     
  1446.12        500.000        3285.11     
  1443.61        500.000        3270.03     
  1441.10        500.000        3273.00     
  1438.60        500.000        3272.39     
  1436.09        500.000        3290.57     
  1433.58        500.000        3271.09     
  1431.08        500.000        3260.49     
  1428.57        500.000        3262.36     
  1426.07        500.000        3264.20     
  1423.56        500.000        3266.12     
  1421.05        500.000        3267.95     
  1418.55        500.000        3269.97     
  1416.04        500.000        3272.01     
  1413.53        500.000        3273.72     
  1411.03        500.000        3275.78     
  1408.52        500.000        3277.80     
  1406.02        500.000        3279.51     
  1403.51        500.000        3281.69     
  1401.00        500.000        3206.50     
  1398.50        500.000        3108.29     
  1395.99        500.000        3110.44     
  1393.48        500.000        3112.56     
  1390.98        500.000        3114.47     
  1388.47        500.000        3116.97     
  1385.96        500.000        3118.96     
  1383.46        500.000        3120.90     
  1380.95        500.000        3123.26     
  1378.45        500.000        3125.24     
  1375.94        500.000        3127.68     
  1373.43        500.000        3129.68     
  1370.93        500.000        3131.75     
  1368.42        500.000        3133.93     
  1365.91        500.000        3135.99     
  1363.41        500.000        3138.19     
  1360.90        500.000        3140.37     
  1358.40        500.000        3142.58     
  1355.89        500.000        3144.84     
  1353.38        500.000        3146.92     
  1350.88        500.000        3155.83     
  1348.37        500.000        3168.61     
  1345.86        500.000        3171.63     
  1343.36        500.000        3174.65     
  1340.85        500.000        3177.73     
  1338.35        500.000        3180.43     
  1335.84        500.000        3183.34     
  1333.33        500.000        3186.72     
  1330.83        500.000        3189.48     
  1328.32        500.000        3192.47     
  1325.81        500.000        3195.35     
  1323.31        500.000        3198.56     
  1320.80        500.000        3201.33     
  1318.30        500.000        3205.12     
  1315.79        500.000        3207.08     
  1313.28        500.000        3209.86     
  1310.78        500.000        3212.56     
  1308.27        500.000        3215.53     
  1305.76        500.000        3218.25     
  1303.26        500.000        3220.86     
  1300.75        500.000        3223.46     
  1298.25        500.000        3225.97     
  1295.74        500.000        3228.65     
  1293.23        500.000        3231.06     
  1290.73        500.000        3233.36     
  1288.22        500.000        3235.70     
  1285.71        500.000        3237.84     
  1283.21        500.000        3239.95     
  1280.70        500.000        2786.21     
  1278.20        500.000        2789.42     
  1275.69        500.000        2795.99     
  1273.18        500.000        2802.27     
  1270.68        500.000        2808.30     
  1268.17        500.000        2814.13     
  1265.66        500.000        2819.67     
  1263.16        500.000        2825.21     
  1260.65        500.000        2830.62     
  1258.15        500.000        2835.57     
  1255.64        500.000        2840.41     
  1253.13        500.000        2866.74     
  1250.63        500.000        2879.42     
  1248.12        500.000        2880.38     
  1245.61        500.000        2881.06     
  1243.11        500.000        2881.56     
  1240.60        500.000        2881.60     
  1238.10        500.000        2881.49     
  1235.59        500.000        2880.94     
  1233.08        500.000        2880.61     
  1230.58        500.000        2880.54     
  1228.07        500.000        2883.20     
  1225.56        500.000        2873.84     
  1223.06        500.000        2885.85     
  1220.55        500.000        2866.64     
  1218.05        500.000        2877.46     
  1215.54        500.000        2865.62     
  1213.03        500.000        2857.90     
  1210.53        500.000        2899.73     
  1208.02        500.000        2857.52     
  1205.51        500.000        2826.30     
  1203.01        500.000        2898.05     
  1200.50        500.000        2845.54     
  1197.99        500.000        2692.25     
  1195.49        500.000        2684.59     
  1192.98        500.000        2679.72     
  1190.48        500.000        2670.44     
  1187.97        500.000        2669.02     
  1185.46        500.000        2652.62     
  1182.96        500.000        2638.12     
  1180.45        500.000        2638.24     
  1177.94        500.000        2638.35     
  1175.44        500.000        2638.46     
  1172.93        500.000        2638.58     
  1170.43        500.000        2638.69     
  1167.92        500.000        2638.80     
  1165.41        500.000        2638.92     
  1162.91        500.000        2639.03     
  1160.40        500.000        2639.22     
  1157.89        500.000        2639.33     
  1155.39        500.000        2639.43     
  1152.88        500.000        2639.53     
  1150.38        500.000        2639.68     
  1147.87        500.000        2639.77     
  1145.36        500.000        2639.87     
  1142.86        500.000        2641.36     
  1140.35        500.000        2642.76     
  1137.84        500.000        2642.83     
  1135.34        500.000        2642.91     
  1132.83        500.000        2643.04     
  1130.33        500.000        2643.16     
  1127.82        500.000        2643.25     
  1125.31        500.000        2643.28     
  1122.81        500.000        2643.37     
  1120.30        500.000        2643.47     
  1117.79        500.000        2643.54     
  1115.29        500.000        2643.63     
  1112.78        500.000        2643.73     
  1110.28        500.000        2643.80     
  1107.77        500.000        2643.92     
  1105.26        500.000        2644.01     
  1102.76        500.000        2644.10     
  1100.25        500.000        2644.17     
  1097.74        500.000        2644.29     
  1095.24        500.000        2644.38     
  1092.73        500.000        2644.43     
  1090.23        500.000        2644.51     
  1087.72        500.000        2644.62     
  1085.21        500.000        2644.78     
  1082.71        500.000        2644.80     
  1080.20        500.000        2644.89     
  1077.69        500.000        2644.97     
  1075.19        500.000        2645.08     
  1072.68        500.000        2645.17     
  1070.18        500.000        2645.25     
  1067.67        500.000        2645.35     
  1065.16        500.000        2645.44     
  1062.66        500.000        2645.54     
  1060.15        500.000        2645.65     
  1057.64        500.000        2645.75     
  1055.14        500.000        2645.83     
  1052.63        500.000        2645.92     
  1050.13        500.000        2646.08     
  1047.62        500.000        2646.09     
  1045.11        500.000        2646.19     
  1042.61        500.000        2646.28     
  1040.10        500.000        2646.41     
  1037.59        500.000        2646.48     
  1035.09        500.000        2646.65     
  1032.58        500.000        2646.66     
  1030.08        500.000        2646.75     
  1027.57        500.000        2646.85     
  1025.06        500.000        2646.94     
  1022.56        500.000        2647.03     
  1020.05        500.000        2647.13     
  1017.54        500.000        2647.24     
  1015.04        500.000        2647.33     
  1012.53        500.000        2647.43     
  1010.03        500.000        2647.53     
  1007.52        500.000        2647.62     
  1005.01        500.000        2647.71     
  1002.51        500.000        2647.81     
  1000.00        500.000        2647.91     
