|6.6.6
Archiving\03_Data\eqfracLP/QFM_m0.25/LAR/LAR_4.tab                        
           1
T(K)    
  0.000000000000000E+000
  0.000000000000000E+000
           0
           3
T(K)           P(bar)         Sp(TH),m3     
  1384.62        500.000                 NaN
  1383.66        500.000                 NaN
  1382.69        500.000                 NaN
  1381.73        500.000                 NaN
  1380.76        500.000                 NaN
  1379.80        500.000                 NaN
  1378.84        500.000                 NaN
  1377.87        500.000                 NaN
  1376.91        500.000                 NaN
  1375.94        500.000                 NaN
  1374.98        500.000                 NaN
  1374.02        500.000                 NaN
  1373.05        500.000                 NaN
  1372.09        500.000                 NaN
  1371.12        500.000                 NaN
  1370.16        500.000                 NaN
  1369.20        500.000                 NaN
  1368.23        500.000                 NaN
  1367.27        500.000                 NaN
  1366.30        500.000                 NaN
  1365.34        500.000                 NaN
  1364.38        500.000                 NaN
  1363.41        500.000                 NaN
  1362.45        500.000                 NaN
  1361.48        500.000                 NaN
  1360.52        500.000                 NaN
  1359.56        500.000                 NaN
  1358.59        500.000                 NaN
  1357.63        500.000                 NaN
  1356.67        500.000                 NaN
  1355.70        500.000                 NaN
  1354.74        500.000                 NaN
  1353.77        500.000                 NaN
  1352.81        500.000                 NaN
  1351.85        500.000                 NaN
  1350.88        500.000                 NaN
  1349.92        500.000                 NaN
  1348.95        500.000                 NaN
  1347.99        500.000                 NaN
  1347.03        500.000                 NaN
  1346.06        500.000                 NaN
  1345.10        500.000                 NaN
  1344.13        500.000                 NaN
  1343.17        500.000                 NaN
  1342.21        500.000                 NaN
  1341.24        500.000                 NaN
  1340.28        500.000                 NaN
  1339.31        500.000                 NaN
  1338.35        500.000                 NaN
  1337.39        500.000                 NaN
  1336.42        500.000                 NaN
  1335.46        500.000                 NaN
  1334.49        500.000                 NaN
  1333.53        500.000                 NaN
  1332.57        500.000                 NaN
  1331.60        500.000                 NaN
  1330.64        500.000                 NaN
  1329.67        500.000                 NaN
  1328.71        500.000                 NaN
  1327.75        500.000                 NaN
  1326.78        500.000                 NaN
  1325.82        500.000                 NaN
  1324.85        500.000                 NaN
  1323.89        500.000                 NaN
  1322.93        500.000                 NaN
  1321.96        500.000                 NaN
  1321.00        500.000                 NaN
  1320.03        500.000                 NaN
  1319.07        500.000                 NaN
  1318.11        500.000                 NaN
  1317.14        500.000                 NaN
  1316.18        500.000                 NaN
  1315.21        500.000                 NaN
  1314.25        500.000                 NaN
  1313.29        500.000                 NaN
  1312.32        500.000                 NaN
  1311.36        500.000                 NaN
  1310.40        500.000                 NaN
  1309.43        500.000                 NaN
  1308.47        500.000                 NaN
  1307.50        500.000                 NaN
  1306.54        500.000                 NaN
  1305.58        500.000                 NaN
  1304.61        500.000                 NaN
  1303.65        500.000                 NaN
  1302.68        500.000                 NaN
  1301.72        500.000                 NaN
  1300.76        500.000                 NaN
  1299.79        500.000                 NaN
  1298.83        500.000                 NaN
  1297.86        500.000                 NaN
  1296.90        500.000                 NaN
  1295.94        500.000                 NaN
  1294.97        500.000                 NaN
  1294.01        500.000                 NaN
  1293.04        500.000                 NaN
  1292.08        500.000                 NaN
  1291.12        500.000                 NaN
  1290.15        500.000                 NaN
  1289.19        500.000                 NaN
  1288.22        500.000                 NaN
  1287.26        500.000                 NaN
  1286.30        500.000                 NaN
  1285.33        500.000                 NaN
  1284.37        500.000                 NaN
  1283.40        500.000                 NaN
  1282.44        500.000                 NaN
  1281.48        500.000                 NaN
  1280.51        500.000                 NaN
  1279.55        500.000                 NaN
  1278.58        500.000                 NaN
  1277.62        500.000       0.144404E-003
  1276.66        500.000       0.183078E-003
  1275.69        500.000       0.196504E-003
  1274.73        500.000       0.212861E-003
  1273.76        500.000       0.205416E-003
  1272.80        500.000       0.229328E-003
  1271.84        500.000       0.235712E-003
  1270.87        500.000       0.214272E-002
  1269.91        500.000       0.199002E-002
  1268.94        500.000       0.165948E-002
  1267.98        500.000       0.138189E-002
  1267.02        500.000       0.116389E-002
  1266.05        500.000       0.991892E-003
  1265.09        500.000       0.855607E-003
  1264.13        500.000       0.746843E-003
  1263.16        500.000       0.657808E-003
  1262.20        500.000       0.585634E-003
  1261.23        500.000       0.523609E-003
  1260.27        500.000       0.472609E-003
  1259.31        500.000       0.428540E-003
  1258.34        500.000       0.391044E-003
  1257.38        500.000       0.358868E-003
  1256.41        500.000       0.330712E-003
  1255.45        500.000       0.305599E-003
  1254.49        500.000       0.283687E-003
  1253.52        500.000       0.264453E-003
  1252.56        500.000       0.247194E-003
  1251.59        500.000       0.231700E-003
  1250.63        500.000       0.217676E-003
  1249.67        500.000       0.204957E-003
  1248.70        500.000       0.193417E-003
  1247.74        500.000       0.183092E-003
  1246.77        500.000       0.173743E-003
  1245.81        500.000       0.164621E-003
  1244.85        500.000       0.156610E-003
  1243.88        500.000       0.149028E-003
  1242.92        500.000       0.142020E-003
  1241.95        500.000       0.135726E-003
  1240.99        500.000       0.129609E-003
  1240.03        500.000       0.123928E-003
  1239.06        500.000       0.118531E-003
  1238.10        500.000       0.113710E-003
  1237.13        500.000       0.109038E-003
  1236.17        500.000       0.529859E-004
  1235.21        500.000       0.491861E-004
  1234.24        500.000       0.474388E-004
  1233.28        500.000       0.454749E-004
  1232.31        500.000       0.442881E-004
  1231.35        500.000       0.426295E-004
  1230.39        500.000       0.412017E-004
  1229.42        500.000       0.398804E-004
  1228.46        500.000       0.382163E-004
  1227.49        500.000       0.371472E-004
  1226.53        500.000       0.361553E-004
  1225.57        500.000       0.999176E-004
  1224.60        500.000       0.171169E-003
  1223.64        500.000                 NaN
  1222.67        500.000                 NaN
  1221.71        500.000       0.105469E-004
  1220.75        500.000                 NaN
  1219.78        500.000                 NaN
  1218.82        500.000       0.311051E-004
  1217.85        500.000                 NaN
  1216.89        500.000       0.135639E-004
  1215.93        500.000       0.118858E-004
  1214.96        500.000       0.239725E-004
  1214.00        500.000       0.233311E-004
  1213.04        500.000       0.240933E-004
  1212.07        500.000       0.816496E-005
  1211.11        500.000                 NaN
  1210.14        500.000       0.780350E-005
  1209.18        500.000       0.238074E-004
  1208.22        500.000       0.328887E-004
  1207.25        500.000       0.591709E-004
  1206.29        500.000       0.361448E-004
  1205.32        500.000                 NaN
  1204.36        500.000                 NaN
  1203.40        500.000                 NaN
  1202.43        500.000       0.647854E-005
  1201.47        500.000       0.823194E-004
  1200.50        500.000       0.735681E-004
  1199.54        500.000       0.585126E-005
  1198.58        500.000                 NaN
  1197.61        500.000                 NaN
  1196.65        500.000       0.123243E-004
  1195.68        500.000                 NaN
  1194.72        500.000                 NaN
  1193.76        500.000       0.553690E-005
  1192.79        500.000                 NaN
  1191.83        500.000       0.673411E-004
  1190.86        500.000                 NaN
  1189.90        500.000                 NaN
  1188.94        500.000                 NaN
  1187.97        500.000       0.256008E-003
  1187.01        500.000       0.163598E-003
  1186.04        500.000       0.359720E-004
  1185.08        500.000       0.761161E-003
  1184.12        500.000       0.760292E-003
  1183.15        500.000       0.761288E-003
  1182.19        500.000       0.760770E-003
  1181.22        500.000       0.762283E-003
  1180.26        500.000       0.762480E-003
  1179.30        500.000       0.762686E-003
  1178.33        500.000       0.762897E-003
  1177.37        500.000       0.763287E-003
  1176.40        500.000       0.763110E-003
  1175.44        500.000       0.763356E-003
  1174.48        500.000       0.762745E-003
  1173.51        500.000       0.763983E-003
  1172.55        500.000       0.764216E-003
  1171.58        500.000       0.764446E-003
  1170.62        500.000       0.764669E-003
  1169.66        500.000       0.763945E-003
  1168.69        500.000       0.764177E-003
  1167.73        500.000       0.764410E-003
  1166.77        500.000       0.764646E-003
  1165.80        500.000       0.765246E-003
  1164.84        500.000       0.765033E-003
  1163.87        500.000       0.765677E-003
  1162.91        500.000       0.766130E-003
  1161.95        500.000       0.765755E-003
  1160.98        500.000       0.766054E-003
  1160.02        500.000       0.767669E-003
  1159.05        500.000       0.768798E-003
  1158.09        500.000       0.767530E-003
  1157.13        500.000       0.768871E-003
  1156.16        500.000       0.768125E-003
  1155.20        500.000       0.769124E-003
  1154.23        500.000       0.768438E-003
  1153.27        500.000       0.768671E-003
  1152.31        500.000       0.768793E-003
  1151.34        500.000       0.768920E-003
  1150.38        500.000       0.769148E-003
  1149.41        500.000       0.769486E-003
  1148.45        500.000       0.769709E-003
  1147.49        500.000       0.769929E-003
  1146.52        500.000       0.770067E-003
  1145.56        500.000       0.770142E-003
  1144.59        500.000       0.769970E-003
  1143.63        500.000       0.770646E-003
  1142.67        500.000       0.770118E-003
  1141.70        500.000       0.771265E-003
  1140.74        500.000       0.771483E-003
  1139.77        500.000       0.771175E-003
  1138.81        500.000       0.771617E-003
  1137.85        500.000       0.771534E-003
  1136.88        500.000       0.771753E-003
  1135.92        500.000       0.771822E-003
  1134.95        500.000       0.772314E-003
  1133.99        500.000       0.772704E-003
  1133.03        500.000       0.772472E-003
  1132.06        500.000       0.772525E-003
  1131.10        500.000       0.772775E-003
  1130.13        500.000       0.773123E-003
  1129.17        500.000       0.773338E-003
  1128.21        500.000       0.773584E-003
  1127.24        500.000       0.773614E-003
  1126.28        500.000       0.773738E-003
  1125.31        500.000       0.773972E-003
  1124.35        500.000       0.773704E-003
  1123.39        500.000       0.774368E-003
  1122.42        500.000       0.775108E-003
  1121.46        500.000       0.775379E-003
  1120.49        500.000       0.775486E-003
  1119.53        500.000       0.775691E-003
  1118.57        500.000       0.775856E-003
  1117.60        500.000       0.776432E-003
  1116.64        500.000       0.775582E-003
  1115.68        500.000       0.776596E-003
  1114.71        500.000       0.775377E-003
  1113.75        500.000       0.775957E-003
  1112.78        500.000       0.777198E-003
  1111.82        500.000       0.775845E-003
  1110.86        500.000       0.775707E-003
  1109.89        500.000       0.776501E-003
  1108.93        500.000       0.775176E-003
  1107.96        500.000       0.773818E-003
  1107.00        500.000       0.775760E-003
  1106.04        500.000       0.767296E-003
  1105.07        500.000       0.771390E-003
  1104.11        500.000       0.761635E-003
  1103.14        500.000       0.756713E-003
  1102.18        500.000       0.752568E-003
  1101.22        500.000       0.748416E-003
  1100.25        500.000       0.744226E-003
  1099.29        500.000       0.740049E-003
  1098.32        500.000       0.735914E-003
  1097.36        500.000       0.731763E-003
  1096.40        500.000       0.727570E-003
  1095.43        500.000       0.723386E-003
  1094.47        500.000       0.719492E-003
  1093.50        500.000       0.720198E-003
  1092.54        500.000       0.724065E-003
  1091.58        500.000       0.706616E-003
  1090.61        500.000       0.702873E-003
  1089.65        500.000       0.698202E-003
  1088.68        500.000       0.693991E-003
  1087.72        500.000       0.689792E-003
  1086.76        500.000       0.685523E-003
  1085.79        500.000       0.681362E-003
  1084.83        500.000       0.677068E-003
  1083.86        500.000       0.675198E-003
  1082.90        500.000       0.669069E-003
  1081.94        500.000       0.665957E-003
  1080.97        500.000       0.663055E-003
  1080.01        500.000       0.658493E-003
  1079.04        500.000       0.654119E-003
  1078.08        500.000       0.649763E-003
  1077.12        500.000       0.643887E-003
  1076.15        500.000       0.640502E-003
  1075.19        500.000       0.635263E-003
  1074.22        500.000       0.631052E-003
  1073.26        500.000       0.627711E-003
  1072.30        500.000       0.621439E-003
  1071.33        500.000       0.617098E-003
  1070.37        500.000       0.614277E-003
  1069.41        500.000       0.609928E-003
  1068.44        500.000       0.604019E-003
  1067.48        500.000       0.599638E-003
  1066.51        500.000       0.595245E-003
  1065.55        500.000       0.590841E-003
  1064.59        500.000       0.586425E-003
  1063.62        500.000       0.581994E-003
  1062.66        500.000       0.577558E-003
  1061.69        500.000       0.573177E-003
  1060.73        500.000       0.568707E-003
  1059.77        500.000       0.564222E-003
  1058.80        500.000       0.559723E-003
  1057.84        500.000       0.252397E-003
  1056.87        500.000       0.231329E-003
  1055.91        500.000       0.211128E-003
  1054.95        500.000       0.191893E-003
  1053.98        500.000       0.173489E-003
  1053.02        500.000       0.156349E-003
  1052.05        500.000       0.131359E-003
  1051.09        500.000       0.118238E-003
  1050.13        500.000       0.105179E-003
  1049.16        500.000       0.921420E-004
  1048.20        500.000       0.883318E-004
  1047.23        500.000       0.642995E-004
  1046.27        500.000       0.509414E-004
  1045.31        500.000       0.380998E-004
  1044.34        500.000       0.257576E-004
  1043.38        500.000       0.138491E-004
  1042.41        500.000       0.221304E-005
  1041.45        500.000                 NaN
  1040.49        500.000                 NaN
  1039.52        500.000                 NaN
  1038.56        500.000                 NaN
  1037.59        500.000                 NaN
  1036.63        500.000                 NaN
  1035.67        500.000                 NaN
  1034.70        500.000                 NaN
  1033.74        500.000                 NaN
  1032.77        500.000                 NaN
  1031.81        500.000                 NaN
  1030.85        500.000                 NaN
  1029.88        500.000                 NaN
  1028.92        500.000                 NaN
  1027.95        500.000                 NaN
  1026.99        500.000                 NaN
  1026.03        500.000                 NaN
  1025.06        500.000                 NaN
  1024.10        500.000                 NaN
  1023.14        500.000                 NaN
  1022.17        500.000                 NaN
  1021.21        500.000                 NaN
  1020.24        500.000                 NaN
  1019.28        500.000                 NaN
  1018.32        500.000                 NaN
  1017.35        500.000                 NaN
  1016.39        500.000                 NaN
  1015.42        500.000                 NaN
  1014.46        500.000                 NaN
  1013.50        500.000                 NaN
  1012.53        500.000                 NaN
  1011.57        500.000                 NaN
  1010.60        500.000                 NaN
  1009.64        500.000                 NaN
  1008.68        500.000                 NaN
  1007.71        500.000                 NaN
  1006.75        500.000                 NaN
  1005.78        500.000                 NaN
  1004.82        500.000                 NaN
  1003.86        500.000                 NaN
  1002.89        500.000                 NaN
  1001.93        500.000                 NaN
  1000.96        500.000                 NaN
  1000.00        500.000                 NaN
