|6.6.6
Archiving\03_Data\frac/QFM_m1.75/NWA1068/NWA1068_6.tab                    
           1
T(K)    
  0.000000000000000E+000
  0.000000000000000E+000
           0
           3
T(K)           P(bar)         rho,kg/m3     
  2000.00        2500.00        3681.23     
  1997.49        2500.00        3681.62     
  1994.99        2500.00        3682.00     
  1992.48        2500.00        3682.39     
  1989.97        2500.00        3682.78     
  1987.47        2500.00        3683.16     
  1984.96        2500.00        3683.55     
  1982.46        2500.00        3683.93     
  1979.95        2500.00        3684.32     
  1977.44        2500.00        3684.70     
  1974.94        2500.00        3685.09     
  1972.43        2500.00        3685.47     
  1969.92        2500.00        3685.86     
  1967.42        2500.00        3686.24     
  1964.91        2500.00        3686.63     
  1962.41        2500.00        3687.01     
  1959.90        2500.00        3687.39     
  1957.39        2500.00        3687.78     
  1954.89        2500.00        3688.16     
  1952.38        2500.00        3688.55     
  1949.87        2500.00        3688.93     
  1947.37        2500.00        3689.31     
  1944.86        2500.00        3689.70     
  1942.36        2500.00        3690.08     
  1939.85        2500.00        3690.46     
  1937.34        2500.00        3690.85     
  1934.84        2500.00        3691.23     
  1932.33        2500.00        3691.61     
  1929.82        2500.00        3691.99     
  1927.32        2500.00        3692.38     
  1924.81        2500.00        3692.76     
  1922.31        2500.00        3693.14     
  1919.80        2500.00        3693.52     
  1917.29        2500.00        3693.90     
  1914.79        2500.00        3694.29     
  1912.28        2500.00        3694.67     
  1909.77        2500.00        3695.05     
  1907.27        2500.00        3695.43     
  1904.76        2500.00        3695.81     
  1902.26        2500.00        3696.19     
  1899.75        2500.00        3696.57     
  1897.24        2500.00        3696.95     
  1894.74        2500.00        3697.34     
  1892.23        2500.00        3697.72     
  1889.72        2500.00        3698.10     
  1887.22        2500.00        3698.48     
  1884.71        2500.00        3698.86     
  1882.21        2500.00        3699.24     
  1879.70        2500.00        3699.62     
  1877.19        2500.00        3700.00     
  1874.69        2500.00        3700.38     
  1872.18        2500.00        3700.76     
  1869.67        2500.00        3701.13     
  1867.17        2500.00        3701.51     
  1864.66        2500.00        3701.89     
  1862.16        2500.00        3702.27     
  1859.65        2500.00        3702.65     
  1857.14        2500.00        3703.03     
  1854.64        2500.00        3703.41     
  1852.13        2500.00        3703.79     
  1849.62        2500.00        3704.16     
  1847.12        2500.00        3704.54     
  1844.61        2500.00        3704.92     
  1842.11        2500.00        3705.30     
  1839.60        2500.00        3705.68     
  1837.09        2500.00        3706.05     
  1834.59        2500.00        3706.43     
  1832.08        2500.00        3706.81     
  1829.57        2500.00        3707.19     
  1827.07        2500.00        3707.56     
  1824.56        2500.00        3707.94     
  1822.06        2500.00        3708.32     
  1819.55        2500.00        3708.69     
  1817.04        2500.00        3709.07     
  1814.54        2500.00        3709.45     
  1812.03        2500.00        3709.82     
  1809.52        2500.00        3710.20     
  1807.02        2500.00        3710.58     
  1804.51        2500.00        3710.95     
  1802.01        2500.00        3711.33     
  1799.50        2500.00        3711.70     
  1796.99        2500.00        3712.08     
  1794.49        2500.00        3712.45     
  1791.98        2500.00        3712.83     
  1789.47        2500.00        3713.20     
  1786.97        2500.00        3713.58     
  1784.46        2500.00        3713.95     
  1781.95        2500.00        3714.33     
  1779.45        2500.00        3714.70     
  1776.94        2500.00        3715.08     
  1774.44        2500.00        3715.45     
  1771.93        2500.00        3715.83     
  1769.42        2500.00        3716.20     
  1766.92        2500.00        3716.57     
  1764.41        2500.00        3716.95     
  1761.90        2500.00        3717.32     
  1759.40        2500.00        3717.70     
  1756.89        2500.00        3718.07     
  1754.39        2500.00        3718.44     
  1751.88        2500.00        3718.82     
  1749.37        2500.00        3719.19     
  1746.87        2500.00        3719.56     
  1744.36        2500.00        3719.93     
  1741.85        2500.00        3720.31     
  1739.35        2500.00        3720.68     
  1736.84        2500.00        3721.05     
  1734.34        2500.00        3721.42     
  1731.83        2500.00        3721.80     
  1729.32        2500.00        3722.17     
  1726.82        2500.00        3722.54     
  1724.31        2500.00        3722.91     
  1721.80        2500.00        3723.28     
  1719.30        2500.00        3723.66     
  1716.79        2500.00        3724.03     
  1714.29        2500.00        3724.40     
  1711.78        2500.00        3724.77     
  1709.27        2500.00        3725.14     
  1706.77        2500.00        3725.51     
  1704.26        2500.00        3725.88     
  1701.75        2500.00        3726.25     
  1699.25        2500.00        3726.62     
  1696.74        2500.00        3727.12     
  1694.24        2500.00        3737.02     
  1691.73        2500.00        3737.50     
  1689.22        2500.00        3742.84     
  1686.72        2500.00        3733.02     
  1684.21        2500.00        3652.94     
  1681.70        2500.00        4504.24     
  1679.20        2500.00        4505.03     
  1676.69        2500.00        4505.06     
  1674.19        2500.00        4505.69     
  1671.68        2500.00        4506.24     
  1669.17        2500.00        4506.33     
  1666.67        2500.00        4505.68     
  1664.16        2500.00        4507.25     
  1661.65        2500.00        4507.88     
  1659.15        2500.00        4506.48     
  1656.64        2500.00        4506.57     
  1654.14        2500.00        4499.60     
  1651.63        2500.00        3492.81     
  1649.12        2500.00        3399.30     
  1646.62        2500.00        3402.75     
  1644.11        2500.00        3406.58     
  1641.60        2500.00        3401.91     
  1639.10        2500.00        3408.36     
  1636.59        2500.00        3411.72     
  1634.09        2500.00        3412.27     
  1631.58        2500.00        3415.76     
  1629.07        2500.00        3417.47     
  1626.57        2500.00        3409.38     
  1624.06        2500.00        3421.23     
  1621.55        2500.00        3427.77     
  1619.05        2500.00        3424.43     
  1616.54        2500.00        3430.81     
  1614.04        2500.00        3430.82     
  1611.53        2500.00        3432.61     
  1609.02        2500.00        3435.79     
  1606.52        2500.00        3437.12     
  1604.01        2500.00        3439.37     
  1601.50        2500.00        3441.60     
  1599.00        2500.00        3444.70     
  1596.49        2500.00        3445.99     
  1593.98        2500.00        3448.53     
  1591.48        2500.00        3450.86     
  1588.97        2500.00        3452.59     
  1586.47        2500.00        3455.92     
  1583.96        2500.00        3457.35     
  1581.45        2500.00        3459.43     
  1578.95        2500.00        3460.42     
  1576.44        2500.00        3464.67     
  1573.93        2500.00        3466.47     
  1571.43        2500.00        3469.08     
  1568.92        2500.00        3471.07     
  1566.42        2500.00        3472.19     
  1563.91        2500.00        3475.39     
  1561.40        2500.00        3475.82     
  1558.90        2500.00        3479.31     
  1556.39        2500.00        3481.46     
  1553.88        2500.00        3484.26     
  1551.38        2500.00        3486.67     
  1548.87        2500.00        3487.76     
  1546.37        2500.00        3491.94     
  1543.86        2500.00        3492.43     
  1541.35        2500.00        3495.11     
  1538.85        2500.00        3497.82     
  1536.34        2500.00        3499.68     
  1533.83        2500.00        3501.14     
  1531.33        2500.00        3503.89     
  1528.82        2500.00        3506.40     
  1526.32        2500.00        3508.83     
  1523.81        2500.00        3510.31     
  1521.30        2500.00        3512.68     
  1518.80        2500.00        3514.99     
  1516.29        2500.00        3517.26     
  1513.78        2500.00        3511.49     
  1511.28        2500.00        3310.30     
  1508.77        2500.00        3311.59     
  1506.27        2500.00        3312.89     
  1503.76        2500.00        3314.29     
  1501.25        2500.00        3315.46     
  1498.75        2500.00        3316.67     
  1496.24        2500.00        3324.45     
  1493.73        2500.00        3320.19     
  1491.23        2500.00        3319.29     
  1488.72        2500.00        3319.79     
  1486.22        2500.00        3298.19     
  1483.71        2500.00        3300.12     
  1481.20        2500.00        3302.35     
  1478.70        2500.00        3304.53     
  1476.19        2500.00        3306.64     
  1473.68        2500.00        3308.88     
  1471.18        2500.00        3312.09     
  1468.67        2500.00        3316.24     
  1466.17        2500.00        3332.74     
  1463.66        2500.00        3335.10     
  1461.15        2500.00        3337.02     
  1458.65        2500.00        3339.10     
  1456.14        2500.00        3341.17     
  1453.63        2500.00        3344.25     
  1451.13        2500.00        3344.49     
  1448.62        2500.00        3346.63     
  1446.12        2500.00        3350.22     
  1443.61        2500.00        3352.00     
  1441.10        2500.00        3353.71     
  1438.60        2500.00        3356.21     
  1436.09        2500.00        3358.17     
  1433.58        2500.00        3360.44     
  1431.08        2500.00        3362.74     
  1428.57        2500.00        3364.98     
  1426.07        2500.00        3366.58     
  1423.56        2500.00        3370.55     
  1421.05        2500.00        3371.59     
  1418.55        2500.00        3373.84     
  1416.04        2500.00        3376.17     
  1413.53        2500.00        3377.87     
  1411.03        2500.00        3381.23     
  1408.52        2500.00        3383.09     
  1406.02        2500.00        3385.36     
  1403.51        2500.00        3387.82     
  1401.00        2500.00        3244.89     
  1398.50        2500.00        3209.47     
  1395.99        2500.00        3213.81     
  1393.48        2500.00        3217.95     
  1390.98        2500.00        3221.96     
  1388.47        2500.00        3225.83     
  1385.96        2500.00        3230.11     
  1383.46        2500.00        3234.11     
  1380.95        2500.00        3238.48     
  1378.45        2500.00        3242.21     
  1375.94        2500.00        3246.32     
  1373.43        2500.00        3250.36     
  1370.93        2500.00        3253.99     
  1368.42        2500.00        3257.94     
  1365.91        2500.00        3261.73     
  1363.41        2500.00        3265.91     
  1360.90        2500.00        3269.35     
  1358.40        2500.00        3266.90     
  1355.89        2500.00        3275.82     
  1353.38        2500.00        3279.14     
  1350.88        2500.00        3282.10     
  1348.37        2500.00        3285.08     
  1345.86        2500.00        3288.05     
  1343.36        2500.00        3291.09     
  1340.85        2500.00        3293.73     
  1338.35        2500.00        3296.74     
  1335.84        2500.00        3299.28     
  1333.33        2500.00        3301.77     
  1330.83        2500.00        3302.09     
  1328.32        2500.00        3332.05     
  1325.81        2500.00        3352.43     
  1323.31        2500.00        3353.85     
  1320.80        2500.00        3355.44     
  1318.30        2500.00        3355.71     
  1315.79        2500.00        3358.24     
  1313.28        2500.00        3359.41     
  1310.78        2500.00        3360.53     
  1308.27        2500.00        3361.80     
  1305.76        2500.00        3361.95     
  1303.26        2500.00        3362.76     
  1300.75        2500.00        3362.99     
  1298.25        2500.00        3363.32     
  1295.74        2500.00        3363.84     
  1293.23        2500.00        3363.39     
  1290.73        2500.00        2866.66     
  1288.22        2500.00        2867.60     
  1285.71        2500.00        2870.17     
  1283.21        2500.00        2871.64     
  1280.70        2500.00        2871.93     
  1278.20        2500.00        2871.15     
  1275.69        2500.00        2869.20     
  1273.18        2500.00        2869.39     
  1270.68        2500.00        2843.05     
  1268.17        2500.00        2863.39     
  1265.66        2500.00        2865.34     
  1263.16        2500.00        2844.03     
  1260.65        2500.00        2879.00     
  1258.15        2500.00        2862.78     
  1255.64        2500.00        2858.18     
  1253.13        2500.00        2859.29     
  1250.63        2500.00        2868.77     
  1248.12        2500.00        2831.79     
  1245.61        2500.00        2884.66     
  1243.11        2500.00        2770.94     
  1240.60        2500.00        2873.20     
  1238.10        2500.00        2960.17     
  1235.59        2500.00        2674.13     
  1233.08        2500.00        2948.72     
  1230.58        2500.00        2850.54     
  1228.07        2500.00        2858.83     
  1225.56        2500.00        2683.87     
  1223.06        2500.00        2683.73     
  1220.55        2500.00        2683.86     
  1218.05        2500.00        2683.99     
  1215.54        2500.00        2684.11     
  1213.03        2500.00        2684.24     
  1210.53        2500.00        2684.37     
  1208.02        2500.00        2684.49     
  1205.51        2500.00        2684.62     
  1203.01        2500.00        2684.74     
  1200.50        2500.00        2684.87     
  1197.99        2500.00        2685.00     
  1195.49        2500.00        2685.12     
  1192.98        2500.00        2685.24     
  1190.48        2500.00        2685.37     
  1187.97        2500.00        2685.49     
  1185.46        2500.00        2685.62     
  1182.96        2500.00        2685.74     
  1180.45        2500.00        2685.87     
  1177.94        2500.00        2685.99     
  1175.44        2500.00        2686.12     
  1172.93        2500.00        2686.25     
  1170.43        2500.00        2686.37     
  1167.92        2500.00        2686.50     
  1165.41        2500.00        2686.62     
  1162.91        2500.00        2686.75     
  1160.40        2500.00        2686.87     
  1157.89        2500.00        2687.22     
  1155.39        2500.00        2687.43     
  1152.88        2500.00        2687.53     
  1150.38        2500.00        2687.61     
  1147.87        2500.00        2687.73     
  1145.36        2500.00        2687.73     
  1142.86        2500.00        2687.76     
  1140.35        2500.00        2688.16     
  1137.84        2500.00        2688.28     
  1135.34        2500.00        2688.40     
  1132.83        2500.00        2688.25     
  1130.33        2500.00        2688.65     
  1127.82        2500.00        2688.50     
  1125.31        2500.00        2688.62     
  1122.81        2500.00        2689.04     
  1120.30        2500.00        2689.14     
  1117.79        2500.00        2689.27     
  1115.29        2500.00        2689.39     
  1112.78        2500.00        2689.26     
  1110.28        2500.00        2689.60     
  1107.77        2500.00        2689.71     
  1105.26        2500.00        2689.61     
  1102.76        2500.00        2689.95     
  1100.25        2500.00        2689.84     
  1097.74        2500.00        2690.19     
  1095.24        2500.00        2690.31     
  1092.73        2500.00        2690.43     
  1090.23        2500.00        2690.54     
  1087.72        2500.00        2690.66     
  1085.21        2500.00        2690.78     
  1082.71        2500.00        2690.90     
  1080.20        2500.00        2691.01     
  1077.69        2500.00        2691.13     
  1075.19        2500.00        2691.25     
  1072.68        2500.00        2691.37     
  1070.18        2500.00        2691.49     
  1067.67        2500.00        2691.60     
  1065.16        2500.00        2691.72     
  1062.66        2500.00        2691.84     
  1060.15        2500.00        2691.96     
  1057.64        2500.00        2691.94     
  1055.14        2500.00        2692.19     
  1052.63        2500.00        2692.41     
  1050.13        2500.00        2692.53     
  1047.62        2500.00        2692.65     
  1045.11        2500.00        2692.77     
  1042.61        2500.00        2692.88     
  1040.10        2500.00        2693.00     
  1037.59        2500.00        2693.12     
  1035.09        2500.00        2693.25     
  1032.58        2500.00        2693.36     
  1030.08        2500.00        2693.48     
  1027.57        2500.00        2693.60     
  1025.06        2500.00        2693.72     
  1022.56        2500.00        2693.84     
  1020.05        2500.00        2693.87     
  1017.54        2500.00        2694.07     
  1015.04        2500.00        2694.09     
  1012.53        2500.00        2694.21     
  1010.03        2500.00        2694.32     
  1007.52        2500.00        2694.55     
  1005.01        2500.00        2694.65     
  1002.51        2500.00        2694.76     
  1000.00        2500.00        2694.87     
