|6.6.6
Archiving\03_Data\fracLP/QFM_m2.5/TAY13/TAY13_6.tab                       
           1
T(K)    
  0.000000000000000E+000
  0.000000000000000E+000
           0
           3
T(K)           P(bar)         rho,kg/m3     
  2000.00        500.000        5053.94     
  1997.49        500.000        5054.68     
  1994.99        500.000        5055.41     
  1992.48        500.000        5056.15     
  1989.97        500.000        5056.89     
  1987.47        500.000        5057.62     
  1984.96        500.000        5058.36     
  1982.46        500.000        5059.09     
  1979.95        500.000        5059.83     
  1977.44        500.000        5060.56     
  1974.94        500.000        5061.29     
  1972.43        500.000        5062.03     
  1969.92        500.000        5062.76     
  1967.42        500.000        5063.49     
  1964.91        500.000        5064.22     
  1962.41        500.000        5064.95     
  1959.90        500.000        5065.69     
  1957.39        500.000        5066.42     
  1954.89        500.000        5067.15     
  1952.38        500.000        5067.88     
  1949.87        500.000        5068.60     
  1947.37        500.000        5069.33     
  1944.86        500.000        5070.06     
  1942.36        500.000        5070.79     
  1939.85        500.000        5071.52     
  1937.34        500.000        5072.25     
  1934.84        500.000        5072.97     
  1932.33        500.000        5073.70     
  1929.82        500.000        5074.43     
  1927.32        500.000        5075.15     
  1924.81        500.000        5075.88     
  1922.31        500.000        5076.60     
  1919.80        500.000        5077.33     
  1917.29        500.000        3909.12     
  1914.79        500.000        2944.49     
  1912.28        500.000        2945.09     
  1909.77        500.000        2945.69     
  1907.27        500.000        3163.51     
  1904.76        500.000        3165.35     
  1902.26        500.000        3166.56     
  1899.75        500.000        3168.67     
  1897.24        500.000        3170.64     
  1894.74        500.000        3171.88     
  1892.23        500.000        3173.65     
  1889.72        500.000        3176.32     
  1887.22        500.000        3177.32     
  1884.71        500.000        3178.68     
  1882.21        500.000        3181.00     
  1879.70        500.000        3182.87     
  1877.19        500.000        3184.68     
  1874.69        500.000        3186.36     
  1872.18        500.000        3187.34     
  1869.67        500.000        3190.01     
  1867.17        500.000        3191.81     
  1864.66        500.000        3193.47     
  1862.16        500.000        3196.17     
  1859.65        500.000        3197.31     
  1857.14        500.000        3200.10     
  1854.64        500.000        3203.57     
  1852.13        500.000        3217.93     
  1849.62        500.000        3225.71     
  1847.12        500.000        3226.57     
  1844.61        500.000        3229.30     
  1842.11        500.000        3231.58     
  1839.60        500.000        3233.57     
  1837.09        500.000        3235.22     
  1834.59        500.000        3237.11     
  1832.08        500.000        3238.79     
  1829.57        500.000        3240.90     
  1827.07        500.000        3242.91     
  1824.56        500.000        3244.76     
  1822.06        500.000        3246.98     
  1819.55        500.000        3249.14     
  1817.04        500.000        3251.34     
  1814.54        500.000        3252.66     
  1812.03        500.000        3256.30     
  1809.52        500.000        3256.02     
  1807.02        500.000        3258.82     
  1804.51        500.000        3260.35     
  1802.01        500.000        3262.67     
  1799.50        500.000        3264.54     
  1796.99        500.000        3266.49     
  1794.49        500.000        3268.59     
  1791.98        500.000        3270.21     
  1789.47        500.000        3271.86     
  1786.97        500.000        3274.75     
  1784.46        500.000        3276.89     
  1781.95        500.000        3278.87     
  1779.45        500.000        3280.75     
  1776.94        500.000        3282.31     
  1774.44        500.000        3284.76     
  1771.93        500.000        3286.70     
  1769.42        500.000        3288.67     
  1766.92        500.000        3290.60     
  1764.41        500.000        3292.59     
  1761.90        500.000        3294.61     
  1759.40        500.000        3297.90     
  1756.89        500.000        3298.60     
  1754.39        500.000        3300.77     
  1751.88        500.000        3302.51     
  1749.37        500.000        3305.27     
  1746.87        500.000        3306.86     
  1744.36        500.000        3309.24     
  1741.85        500.000        3311.00     
  1739.35        500.000        3312.87     
  1736.84        500.000        3314.60     
  1734.34        500.000        3317.07     
  1731.83        500.000        3318.96     
  1729.32        500.000        3320.76     
  1726.82        500.000        3323.43     
  1724.31        500.000        3325.56     
  1721.80        500.000        3327.28     
  1719.30        500.000        3329.76     
  1716.79        500.000        3331.63     
  1714.29        500.000        3333.62     
  1711.78        500.000        3334.15     
  1709.27        500.000        3336.75     
  1706.77        500.000        3339.13     
  1704.26        500.000        3341.79     
  1701.75        500.000        3344.04     
  1699.25        500.000        3345.80     
  1696.74        500.000        3347.00     
  1694.24        500.000        3350.85     
  1691.73        500.000        3352.25     
  1689.22        500.000        3354.13     
  1686.72        500.000        3356.15     
  1684.21        500.000        3357.81     
  1681.70        500.000        3359.92     
  1679.20        500.000        3361.93     
  1676.69        500.000        3363.07     
  1674.19        500.000        3365.77     
  1671.68        500.000        3368.02     
  1669.17        500.000        3368.80     
  1666.67        500.000        3372.28     
  1664.16        500.000        3373.84     
  1661.65        500.000        3375.30     
  1659.15        500.000        3378.32     
  1656.64        500.000        3383.74     
  1654.14        500.000        3385.10     
  1651.63        500.000        4489.54     
  1649.12        500.000        3384.62     
  1646.62        500.000        3386.41     
  1644.11        500.000        3389.61     
  1641.60        500.000        3393.19     
  1639.10        500.000        3393.95     
  1636.59        500.000        3395.19     
  1634.09        500.000        3396.99     
  1631.58        500.000        3398.75     
  1629.07        500.000        3403.41     
  1626.57        500.000        3402.76     
  1624.06        500.000        3405.30     
  1621.55        500.000        3406.26     
  1619.05        500.000        3409.44     
  1616.54        500.000        3410.99     
  1614.04        500.000        3412.33     
  1611.53        500.000        3413.37     
  1609.02        500.000        3415.07     
  1606.52        500.000        3418.40     
  1604.01        500.000        3421.65     
  1601.50        500.000        3420.62     
  1599.00        500.000        3423.71     
  1596.49        500.000        3424.78     
  1593.98        500.000        3427.49     
  1591.48        500.000        3428.89     
  1588.97        500.000        3429.49     
  1586.47        500.000        3432.63     
  1583.96        500.000        3434.71     
  1581.45        500.000        3436.23     
  1578.95        500.000        3438.37     
  1576.44        500.000        3440.31     
  1573.93        500.000        3441.64     
  1571.43        500.000        3443.88     
  1568.92        500.000        3445.70     
  1566.42        500.000        3447.24     
  1563.91        500.000        3392.90     
  1561.40        500.000        3300.71     
  1558.90        500.000        3301.92     
  1556.39        500.000        3303.39     
  1553.88        500.000        3304.32     
  1551.38        500.000        3305.05     
  1548.87        500.000        3306.64     
  1546.37        500.000        3307.81     
  1543.86        500.000        3308.76     
  1541.35        500.000        3310.26     
  1538.85        500.000        3311.30     
  1536.34        500.000        3312.56     
  1533.83        500.000        3314.83     
  1531.33        500.000        3315.28     
  1528.82        500.000        3316.53     
  1526.32        500.000        3317.60     
  1523.81        500.000        3317.77     
  1521.30        500.000        3319.08     
  1518.80        500.000        3321.83     
  1516.29        500.000        3321.53     
  1513.78        500.000        3321.39     
  1511.28        500.000        3323.65     
  1508.77        500.000        3324.96     
  1506.27        500.000        3325.33     
  1503.76        500.000        3326.12     
  1501.25        500.000        3327.11     
  1498.75        500.000        3328.07     
  1496.24        500.000        3329.94     
  1493.73        500.000        3329.56     
  1491.23        500.000        3330.74     
  1488.72        500.000        3333.50     
  1486.22        500.000        3332.25     
  1483.71        500.000        3332.81     
  1481.20        500.000        3336.37     
  1478.70        500.000        3336.51     
  1476.19        500.000        3338.40     
  1473.68        500.000        3344.69     
  1471.18        500.000        3336.39     
  1468.67        500.000        3337.73     
  1466.17        500.000        3339.35     
  1463.66        500.000        3334.98     
  1461.15        500.000        3328.55     
  1458.65        500.000        3330.32     
  1456.14        500.000        3332.46     
  1453.63        500.000        3334.39     
  1451.13        500.000        3335.86     
  1448.62        500.000        3337.13     
  1446.12        500.000        3339.26     
  1443.61        500.000        3340.36     
  1441.10        500.000        3342.53     
  1438.60        500.000        3344.03     
  1436.09        500.000        3346.10     
  1433.58        500.000        3347.26     
  1431.08        500.000        3349.03     
  1428.57        500.000        3350.86     
  1426.07        500.000        3352.91     
  1423.56        500.000        3354.13     
  1421.05        500.000        3354.95     
  1418.55        500.000        3356.74     
  1416.04        500.000        3351.71     
  1413.53        500.000        3326.71     
  1411.03        500.000        3328.29     
  1408.52        500.000        3330.55     
  1406.02        500.000        3333.36     
  1403.51        500.000        3335.27     
  1401.00        500.000        3284.75     
  1398.50        500.000        3141.75     
  1395.99        500.000        3144.81     
  1393.48        500.000        3147.39     
  1390.98        500.000        3150.17     
  1388.47        500.000        3153.25     
  1385.96        500.000        3155.88     
  1383.46        500.000        3158.86     
  1380.95        500.000        3161.54     
  1378.45        500.000        3164.57     
  1375.94        500.000        3167.50     
  1373.43        500.000        3170.33     
  1370.93        500.000        3173.08     
  1368.42        500.000        3176.01     
  1365.91        500.000        3178.86     
  1363.41        500.000        3181.73     
  1360.90        500.000        3184.65     
  1358.40        500.000        3210.68     
  1355.89        500.000        3226.45     
  1353.38        500.000        3230.37     
  1350.88        500.000        3233.82     
  1348.37        500.000        3236.75     
  1345.86        500.000        3240.42     
  1343.36        500.000        3243.70     
  1340.85        500.000        3246.96     
  1338.35        500.000        3250.14     
  1335.84        500.000        3253.53     
  1333.33        500.000        3256.99     
  1330.83        500.000        3259.69     
  1328.32        500.000        3263.13     
  1325.81        500.000        3266.03     
  1323.31        500.000        3269.34     
  1320.80        500.000        3272.36     
  1318.30        500.000        3276.06     
  1315.79        500.000        3278.06     
  1313.28        500.000        3267.18     
  1310.78        500.000        3307.26     
  1308.27        500.000        3287.34     
  1305.76        500.000        3290.18     
  1303.26        500.000        3292.72     
  1300.75        500.000        3295.79     
  1298.25        500.000        3298.52     
  1295.74        500.000        3300.86     
  1293.23        500.000        3303.49     
  1290.73        500.000        3305.75     
  1288.22        500.000        3307.99     
  1285.71        500.000        3310.94     
  1283.21        500.000        3313.58     
  1280.70        500.000        3315.26     
  1278.20        500.000        3317.40     
  1275.69        500.000        3319.27     
  1273.18        500.000        2930.55     
  1270.68        500.000        2814.60     
  1268.17        500.000        2813.86     
  1265.66        500.000        2818.62     
  1263.16        500.000        2822.47     
  1260.65        500.000        2826.04     
  1258.15        500.000        2829.40     
  1255.64        500.000        2832.48     
  1253.13        500.000        2835.17     
  1250.63        500.000        2838.43     
  1248.12        500.000        2841.03     
  1245.61        500.000        2844.02     
  1243.11        500.000        2846.76     
  1240.60        500.000        2849.22     
  1238.10        500.000        2851.09     
  1235.59        500.000        2854.65     
  1233.08        500.000        2860.88     
  1230.58        500.000        2860.87     
  1228.07        500.000        2861.50     
  1225.56        500.000        2861.61     
  1223.06        500.000        2861.74     
  1220.55        500.000        2862.33     
  1218.05        500.000        2862.34     
  1215.54        500.000        2860.96     
  1213.03        500.000        2863.04     
  1210.53        500.000        2689.45     
  1208.02        500.000        2684.44     
  1205.51        500.000        2684.59     
  1203.01        500.000        2679.48     
  1200.50        500.000        2682.72     
  1197.99        500.000        2676.44     
  1195.49        500.000        2674.49     
  1192.98        500.000        2662.87     
  1190.48        500.000        2648.63     
  1187.97        500.000        2632.98     
  1185.46        500.000        2633.12     
  1182.96        500.000        2633.16     
  1180.45        500.000        2633.28     
  1177.94        500.000        2633.43     
  1175.44        500.000        2633.50     
  1172.93        500.000        2633.61     
  1170.43        500.000        2633.73     
  1167.92        500.000        2633.81     
  1165.41        500.000        2633.94     
  1162.91        500.000        2634.10     
  1160.40        500.000        2634.15     
  1157.89        500.000        2634.28     
  1155.39        500.000        2634.40     
  1152.88        500.000        2634.51     
  1150.38        500.000        2631.97     
  1147.87        500.000        2632.07     
  1145.36        500.000        2632.18     
  1142.86        500.000        2632.28     
  1140.35        500.000        2632.39     
  1137.84        500.000        2632.49     
  1135.34        500.000        2632.59     
  1132.83        500.000        2632.70     
  1130.33        500.000        2632.80     
  1127.82        500.000        2632.90     
  1125.31        500.000        2633.01     
  1122.81        500.000        2633.11     
  1120.30        500.000        2633.21     
  1117.79        500.000        2633.36     
  1115.29        500.000        2633.41     
  1112.78        500.000        2634.21     
  1110.28        500.000        2633.81     
  1107.77        500.000        2633.25     
  1105.26        500.000        2633.72     
  1102.76        500.000        2633.71     
  1100.25        500.000        2633.72     
  1097.74        500.000        2633.75     
  1095.24        500.000        2633.78     
  1092.73        500.000        2633.82     
  1090.23        500.000        2633.87     
  1087.72        500.000        2633.91     
  1085.21        500.000        2633.97     
  1082.71        500.000        2633.83     
  1080.20        500.000        2633.86     
  1077.69        500.000        2633.96     
  1075.19        500.000        2634.20     
  1072.68        500.000        2634.14     
  1070.18        500.000        2634.23     
  1067.67        500.000        2634.32     
  1065.16        500.000        2634.40     
  1062.66        500.000        2634.51     
  1060.15        500.000        2634.61     
  1057.64        500.000        2634.72     
  1055.14        500.000        2634.83     
  1052.63        500.000        2634.94     
  1050.13        500.000        2635.05     
  1047.62        500.000        2635.15     
  1045.11        500.000        2635.26     
  1042.61        500.000        2635.17     
  1040.10        500.000        2635.35     
  1037.59        500.000        2635.44     
  1035.09        500.000        2635.41     
  1032.58        500.000        2635.80     
  1030.08        500.000        2635.90     
  1027.57        500.000        2636.01     
  1025.06        500.000        2636.12     
  1022.56        500.000        2636.23     
  1020.05        500.000        2636.33     
  1017.54        500.000        2636.44     
  1015.04        500.000        2636.55     
  1012.53        500.000        2636.65     
  1010.03        500.000        2636.76     
  1007.52        500.000        2636.87     
  1005.01        500.000        2636.97     
  1002.51        500.000        2636.76     
  1000.00        500.000        2636.61     
