|6.6.6
Archiving\03_Data\eqfracLP/QFM_m0.25/WD94/WD94_2.tab                      
           1
T(K)    
  0.000000000000000E+000
  0.000000000000000E+000
           0
           3
T(K)           P(bar)         Sp(TH),kg     
  1560.90        500.000       0.470475E-006
  1559.49        500.000                 NaN
  1558.09        500.000                 NaN
  1556.68        500.000                 NaN
  1555.28        500.000                 NaN
  1553.87        500.000                 NaN
  1552.47        500.000                 NaN
  1551.06        500.000                 NaN
  1549.65        500.000                 NaN
  1548.25        500.000                 NaN
  1546.84        500.000                 NaN
  1545.44        500.000                 NaN
  1544.03        500.000                 NaN
  1542.63        500.000                 NaN
  1541.22        500.000                 NaN
  1539.81        500.000                 NaN
  1538.41        500.000                 NaN
  1537.00        500.000                 NaN
  1535.60        500.000                 NaN
  1534.19        500.000                 NaN
  1532.78        500.000                 NaN
  1531.38        500.000                 NaN
  1529.97        500.000                 NaN
  1528.57        500.000                 NaN
  1527.16        500.000                 NaN
  1525.76        500.000                 NaN
  1524.35        500.000                 NaN
  1522.94        500.000                 NaN
  1521.54        500.000                 NaN
  1520.13        500.000                 NaN
  1518.73        500.000                 NaN
  1517.32        500.000                 NaN
  1515.92        500.000                 NaN
  1514.51        500.000                 NaN
  1513.10        500.000                 NaN
  1511.70        500.000                 NaN
  1510.29        500.000                 NaN
  1508.89        500.000                 NaN
  1507.48        500.000                 NaN
  1506.08        500.000                 NaN
  1504.67        500.000                 NaN
  1503.26        500.000                 NaN
  1501.86        500.000                 NaN
  1500.45        500.000                 NaN
  1499.05        500.000                 NaN
  1497.64        500.000                 NaN
  1496.23        500.000                 NaN
  1494.83        500.000                 NaN
  1493.42        500.000                 NaN
  1492.02        500.000                 NaN
  1490.61        500.000                 NaN
  1489.21        500.000                 NaN
  1487.80        500.000                 NaN
  1486.39        500.000                 NaN
  1484.99        500.000                 NaN
  1483.58        500.000                 NaN
  1482.18        500.000                 NaN
  1480.77        500.000                 NaN
  1479.37        500.000                 NaN
  1477.96        500.000                 NaN
  1476.55        500.000                 NaN
  1475.15        500.000                 NaN
  1473.74        500.000                 NaN
  1472.34        500.000                 NaN
  1470.93        500.000                 NaN
  1469.53        500.000                 NaN
  1468.12        500.000                 NaN
  1466.71        500.000                 NaN
  1465.31        500.000                 NaN
  1463.90        500.000                 NaN
  1462.50        500.000                 NaN
  1461.09        500.000                 NaN
  1459.68        500.000                 NaN
  1458.28        500.000                 NaN
  1456.87        500.000                 NaN
  1455.47        500.000                 NaN
  1454.06        500.000                 NaN
  1452.66        500.000                 NaN
  1451.25        500.000                 NaN
  1449.84        500.000                 NaN
  1448.44        500.000                 NaN
  1447.03        500.000                 NaN
  1445.63        500.000                 NaN
  1444.22        500.000                 NaN
  1442.82        500.000                 NaN
  1441.41        500.000                 NaN
  1440.00        500.000                 NaN
  1438.60        500.000                 NaN
  1437.19        500.000                 NaN
  1435.79        500.000                 NaN
  1434.38        500.000                 NaN
  1432.98        500.000                 NaN
  1431.57        500.000                 NaN
  1430.16        500.000                 NaN
  1428.76        500.000                 NaN
  1427.35        500.000                 NaN
  1425.95        500.000                 NaN
  1424.54        500.000                 NaN
  1423.14        500.000                 NaN
  1421.73        500.000                 NaN
  1420.32        500.000                 NaN
  1418.92        500.000                 NaN
  1417.51        500.000                 NaN
  1416.11        500.000                 NaN
  1414.70        500.000                 NaN
  1413.29        500.000                 NaN
  1411.89        500.000                 NaN
  1410.48        500.000                 NaN
  1409.08        500.000                 NaN
  1407.67        500.000                 NaN
  1406.27        500.000                 NaN
  1404.86        500.000                 NaN
  1403.45        500.000                 NaN
  1402.05        500.000                 NaN
  1400.64        500.000                 NaN
  1399.24        500.000                 NaN
  1397.83        500.000                 NaN
  1396.43        500.000                 NaN
  1395.02        500.000                 NaN
  1393.61        500.000                 NaN
  1392.21        500.000                 NaN
  1390.80        500.000                 NaN
  1389.40        500.000                 NaN
  1387.99        500.000                 NaN
  1386.59        500.000                 NaN
  1385.18        500.000                 NaN
  1383.77        500.000                 NaN
  1382.37        500.000                 NaN
  1380.96        500.000                 NaN
  1379.56        500.000                 NaN
  1378.15        500.000                 NaN
  1376.74        500.000                 NaN
  1375.34        500.000                 NaN
  1373.93        500.000                 NaN
  1372.53        500.000                 NaN
  1371.12        500.000                 NaN
  1369.72        500.000                 NaN
  1368.31        500.000                 NaN
  1366.90        500.000                 NaN
  1365.50        500.000                 NaN
  1364.09        500.000                 NaN
  1362.69        500.000                 NaN
  1361.28        500.000                 NaN
  1359.88        500.000                 NaN
  1358.47        500.000                 NaN
  1357.06        500.000                 NaN
  1355.66        500.000                 NaN
  1354.25        500.000                 NaN
  1352.85        500.000                 NaN
  1351.44        500.000                 NaN
  1350.04        500.000                 NaN
  1348.63        500.000                 NaN
  1347.22        500.000                 NaN
  1345.82        500.000                 NaN
  1344.41        500.000                 NaN
  1343.01        500.000                 NaN
  1341.60        500.000                 NaN
  1340.19        500.000                 NaN
  1338.79        500.000                 NaN
  1337.38        500.000                 NaN
  1335.98        500.000                 NaN
  1334.57        500.000                 NaN
  1333.17        500.000                 NaN
  1331.76        500.000                 NaN
  1330.35        500.000                 NaN
  1328.95        500.000                 NaN
  1327.54        500.000                 NaN
  1326.14        500.000                 NaN
  1324.73        500.000                 NaN
  1323.33        500.000                 NaN
  1321.92        500.000                 NaN
  1320.51        500.000                 NaN
  1319.11        500.000                 NaN
  1317.70        500.000                 NaN
  1316.30        500.000                 NaN
  1314.89        500.000                 NaN
  1313.49        500.000                 NaN
  1312.08        500.000                 NaN
  1310.67        500.000                 NaN
  1309.27        500.000                 NaN
  1307.86        500.000                 NaN
  1306.46        500.000                 NaN
  1305.05        500.000                 NaN
  1303.65        500.000                 NaN
  1302.24        500.000                 NaN
  1300.83        500.000                 NaN
  1299.43        500.000                 NaN
  1298.02        500.000                 NaN
  1296.62        500.000                 NaN
  1295.21        500.000                 NaN
  1293.80        500.000                 NaN
  1292.40        500.000                 NaN
  1290.99        500.000                 NaN
  1289.59        500.000                 NaN
  1288.18        500.000                 NaN
  1286.78        500.000                 NaN
  1285.37        500.000                 NaN
  1283.96        500.000                 NaN
  1282.56        500.000                 NaN
  1281.15        500.000                 NaN
  1279.75        500.000                 NaN
  1278.34        500.000                 NaN
  1276.94        500.000                 NaN
  1275.53        500.000                 NaN
  1274.12        500.000                 NaN
  1272.72        500.000                 NaN
  1271.31        500.000                 NaN
  1269.91        500.000                 NaN
  1268.50        500.000                 NaN
  1267.10        500.000                 NaN
  1265.69        500.000       0.328746E-005
  1264.28        500.000       0.221205E-004
  1262.88        500.000       0.185780E-004
  1261.47        500.000       0.158617E-004
  1260.07        500.000       0.137441E-004
  1258.66        500.000       0.120534E-004
  1257.25        500.000       0.106810E-004
  1255.85        500.000       0.955256E-005
  1254.44        500.000       0.860941E-005
  1253.04        500.000       0.780871E-005
  1251.63        500.000       0.712942E-005
  1250.23        500.000       0.654051E-005
  1248.82        500.000       0.603048E-005
  1247.41        500.000       0.557292E-005
  1246.01        500.000       0.519630E-005
  1244.60        500.000       0.481039E-005
  1243.20        500.000       0.449841E-005
  1241.79        500.000       0.421514E-005
  1240.39        500.000       0.395351E-005
  1238.98        500.000       0.371033E-005
  1237.57        500.000       0.349096E-005
  1236.17        500.000       0.586531E-005
  1234.76        500.000       0.196022E-006
  1233.36        500.000       0.188316E-005
  1231.95        500.000       0.357371E-005
  1230.55        500.000       0.307136E-005
  1229.14        500.000       0.505161E-005
  1227.73        500.000       0.188845E-006
  1226.33        500.000       0.701409E-006
  1224.92        500.000       0.423830E-006
  1223.52        500.000       0.589971E-005
  1222.11        500.000       0.159207E-005
  1220.71        500.000                 NaN
  1219.30        500.000       0.341336E-006
  1217.89        500.000       0.672674E-005
  1216.49        500.000       0.401874E-006
  1215.08        500.000                 NaN
  1213.68        500.000       0.854411E-007
  1212.27        500.000       0.217154E-005
  1210.86        500.000       0.203686E-005
  1209.46        500.000                 NaN
  1208.05        500.000       0.146588E-006
  1206.65        500.000                 NaN
  1205.24        500.000       0.312841E-005
  1203.84        500.000       0.189003E-005
  1202.43        500.000                 NaN
  1201.02        500.000       0.321643E-007
  1199.62        500.000       0.258538E-005
  1198.21        500.000       0.373487E-005
  1196.81        500.000                 NaN
  1195.40        500.000       0.524665E-005
  1194.00        500.000       0.343771E-005
  1192.59        500.000       0.984019E-006
  1191.18        500.000       0.346078E-006
  1189.78        500.000       0.408772E-005
  1188.37        500.000       0.210585E-005
  1186.97        500.000       0.261579E-005
  1185.56        500.000       0.710180E-005
  1184.16        500.000       0.550038E-005
  1182.75        500.000       0.550300E-005
  1181.34        500.000       0.555930E-005
  1179.94        500.000       0.550490E-005
  1178.53        500.000       0.550433E-005
  1177.13        500.000       0.551856E-005
  1175.72        500.000       0.557690E-005
  1174.31        500.000       0.553075E-005
  1172.91        500.000       0.551523E-005
  1171.50        500.000       0.551358E-005
  1170.10        500.000       0.552253E-005
  1168.69        500.000       0.552351E-005
  1167.29        500.000       0.552366E-005
  1165.88        500.000       0.552197E-005
  1164.47        500.000       0.556631E-005
  1163.07        500.000       0.553749E-005
  1161.66        500.000       0.554398E-005
  1160.26        500.000       0.554554E-005
  1158.85        500.000       0.557036E-005
  1157.45        500.000       0.554759E-005
  1156.04        500.000       0.555607E-005
  1154.63        500.000       0.555976E-005
  1153.23        500.000       0.555731E-005
  1151.82        500.000       0.556099E-005
  1150.42        500.000       0.557594E-005
  1149.01        500.000       0.557704E-005
  1147.61        500.000       0.557811E-005
  1146.20        500.000       0.557809E-005
  1144.79        500.000       0.558054E-005
  1143.39        500.000       0.557613E-005
  1141.98        500.000       0.557686E-005
  1140.58        500.000       0.557752E-005
  1139.17        500.000       0.559408E-005
  1137.76        500.000       0.558626E-005
  1136.36        500.000       0.559095E-005
  1134.95        500.000       0.559015E-005
  1133.55        500.000       0.559645E-005
  1132.14        500.000       0.559893E-005
  1130.74        500.000       0.560076E-005
  1129.33        500.000       0.561793E-005
  1127.92        500.000       0.561917E-005
  1126.52        500.000       0.560941E-005
  1125.11        500.000       0.559740E-005
  1123.71        500.000       0.561516E-005
  1122.30        500.000       0.561899E-005
  1120.90        500.000       0.561922E-005
  1119.49        500.000       0.566513E-005
  1118.08        500.000       0.562152E-005
  1116.68        500.000       0.562351E-005
  1115.27        500.000       0.562446E-005
  1113.87        500.000       0.563168E-005
  1112.46        500.000       0.563404E-005
  1111.06        500.000       0.563653E-005
  1109.65        500.000       0.563655E-005
  1108.24        500.000       0.563895E-005
  1106.84        500.000       0.565890E-005
  1105.43        500.000       0.566104E-005
  1104.03        500.000       0.564821E-005
  1102.62        500.000       0.566932E-005
  1101.22        500.000       0.565144E-005
  1099.81        500.000       0.565479E-005
  1098.40        500.000       0.565771E-005
  1097.00        500.000       0.569857E-005
  1095.59        500.000       0.569865E-005
  1094.19        500.000       0.566325E-005
  1092.78        500.000       0.570001E-005
  1091.37        500.000       0.570062E-005
  1089.97        500.000       0.569918E-005
  1088.56        500.000       0.567038E-005
  1087.16        500.000       0.569931E-005
  1085.75        500.000       0.569937E-005
  1084.35        500.000       0.569971E-005
  1082.94        500.000       0.570108E-005
  1081.53        500.000       0.570108E-005
  1080.13        500.000       0.570108E-005
  1078.72        500.000       0.570108E-005
  1077.32        500.000       0.568492E-005
  1075.91        500.000       0.568503E-005
  1074.51        500.000       0.568359E-005
  1073.10        500.000       0.566409E-005
  1071.69        500.000       0.562520E-005
  1070.29        500.000       0.558040E-005
  1068.88        500.000       0.554696E-005
  1067.48        500.000       0.550742E-005
  1066.07        500.000       0.546417E-005
  1064.67        500.000       0.542501E-005
  1063.26        500.000       0.538626E-005
  1061.85        500.000       0.534834E-005
  1060.45        500.000       0.530738E-005
  1059.04        500.000       0.526722E-005
  1057.64        500.000       0.453873E-005
  1056.23        500.000       0.453873E-005
  1054.82        500.000       0.453872E-005
  1053.42        500.000       0.385319E-005
  1052.01        500.000       0.385319E-005
  1050.61        500.000       0.385319E-005
  1049.20        500.000       0.324483E-005
  1047.80        500.000       0.276492E-005
  1046.39        500.000       0.254598E-005
  1044.98        500.000       0.236302E-005
  1043.58        500.000       0.217734E-005
  1042.17        500.000       0.200294E-005
  1040.77        500.000       0.183893E-005
  1039.36        500.000       0.226876E-005
  1037.96        500.000       0.153404E-005
  1036.55        500.000       0.138763E-005
  1035.14        500.000                 NaN
  1033.74        500.000       0.225178E-006
  1032.33        500.000                 NaN
  1030.93        500.000                 NaN
  1029.52        500.000                 NaN
  1028.12        500.000                 NaN
  1026.71        500.000                 NaN
  1025.30        500.000                 NaN
  1023.90        500.000                 NaN
  1022.49        500.000                 NaN
  1021.09        500.000                 NaN
  1019.68        500.000                 NaN
  1018.27        500.000                 NaN
  1016.87        500.000                 NaN
  1015.46        500.000                 NaN
  1014.06        500.000                 NaN
  1012.65        500.000                 NaN
  1011.25        500.000                 NaN
  1009.84        500.000                 NaN
  1008.43        500.000                 NaN
  1007.03        500.000                 NaN
  1005.62        500.000                 NaN
  1004.22        500.000                 NaN
  1002.81        500.000                 NaN
  1001.41        500.000                 NaN
  1000.00        500.000                 NaN
