|6.6.6
Archiving\03_Data\eqLP/QFM_m1.25/GRV/GRV_6.tab                            
           1
T(K)    
  0.000000000000000E+000
  0.000000000000000E+000
           0
           3
T(K)           P(bar)         rho,kg/m3     
  2000.00        500.000        3552.33     
  1996.79        500.000        3552.80     
  1993.59        500.000        3553.27     
  1990.38        500.000        3553.75     
  1987.18        500.000        3554.22     
  1983.97        500.000        3554.69     
  1980.77        500.000        3555.17     
  1977.56        500.000        3555.64     
  1974.36        500.000        3556.11     
  1971.15        500.000        3556.58     
  1967.95        500.000        3557.06     
  1964.74        500.000        3557.53     
  1961.54        500.000        3558.00     
  1958.33        500.000        3558.47     
  1955.13        500.000        3558.94     
  1951.92        500.000        3559.42     
  1948.72        500.000        3559.89     
  1945.51        500.000        3560.36     
  1942.31        500.000        3560.83     
  1939.10        500.000        3561.30     
  1935.90        500.000        3561.77     
  1932.69        500.000        3562.24     
  1929.49        500.000        3562.71     
  1926.28        500.000        3563.18     
  1923.08        500.000        3563.65     
  1919.87        500.000        3564.12     
  1916.67        500.000        3564.58     
  1913.46        500.000        3565.05     
  1910.26        500.000        3565.52     
  1907.05        500.000        3565.99     
  1903.85        500.000        3566.46     
  1900.64        500.000        3566.93     
  1897.44        500.000        3567.39     
  1894.23        500.000        3567.86     
  1891.03        500.000        3568.33     
  1887.82        500.000        3568.79     
  1884.62        500.000        3569.26     
  1881.41        500.000        3569.73     
  1878.21        500.000        3570.19     
  1875.00        500.000        3570.66     
  1871.79        500.000        3571.13     
  1868.59        500.000        3571.59     
  1865.38        500.000        3572.06     
  1862.18        500.000        3572.52     
  1858.97        500.000        3572.99     
  1855.77        500.000        3573.45     
  1852.56        500.000        3573.92     
  1849.36        500.000        3574.38     
  1846.15        500.000        3574.85     
  1842.95        500.000        3575.31     
  1839.74        500.000        3575.78     
  1836.54        500.000        3576.24     
  1833.33        500.000        3576.70     
  1830.13        500.000        3577.17     
  1826.92        500.000        3577.63     
  1823.72        500.000        3578.09     
  1820.51        500.000        3578.56     
  1817.31        500.000        3579.02     
  1814.10        500.000        3579.48     
  1810.90        500.000        3583.41     
  1807.69        500.000        3602.12     
  1804.49        500.000        3619.77     
  1801.28        500.000        3636.76     
  1798.08        500.000        3653.13     
  1794.87        500.000        3668.91     
  1791.67        500.000        3683.45     
  1788.46        500.000        3697.51     
  1785.26        500.000        3711.13     
  1782.05        500.000        3724.31     
  1778.85        500.000        3737.08     
  1775.64        500.000        3749.46     
  1772.44        500.000        3761.48     
  1769.23        500.000        3773.13     
  1766.03        500.000        3783.92     
  1762.82        500.000        3794.43     
  1759.62        500.000        3804.65     
  1756.41        500.000        3814.60     
  1753.21        500.000        3824.34     
  1750.00        500.000        3582.39     
  1746.79        500.000        3487.22     
  1743.59        500.000        3437.72     
  1740.38        500.000        3410.45     
  1737.18        500.000        3392.23     
  1733.97        500.000        3379.24     
  1730.77        500.000        3369.57     
  1727.56        500.000        3362.11     
  1724.36        500.000        3356.22     
  1721.15        500.000        3351.48     
  1717.95        500.000        3347.59     
  1714.74        500.000        3346.11     
  1711.54        500.000        3344.91     
  1708.33        500.000        3343.93     
  1705.13        500.000        3343.13     
  1701.92        500.000        3342.48     
  1698.72        500.000        3341.96     
  1695.51        500.000        3341.54     
  1692.31        500.000        3341.20     
  1689.10        500.000        3341.72     
  1685.90        500.000        3342.23     
  1682.69        500.000        3342.74     
  1679.49        500.000        3343.24     
  1676.28        500.000        3343.74     
  1673.08        500.000        3344.24     
  1669.87        500.000        3344.74     
  1666.67        500.000        3345.23     
  1663.46        500.000        3346.18     
  1660.26        500.000        3347.09     
  1657.05        500.000        3347.97     
  1653.85        500.000        3348.83     
  1650.64        500.000        3349.67     
  1647.44        500.000        3350.49     
  1644.23        500.000        3351.29     
  1641.03        500.000        3352.07     
  1637.82        500.000        3352.96     
  1634.62        500.000        3353.83     
  1631.41        500.000        3354.69     
  1628.21        500.000        3355.52     
  1625.00        500.000        3355.34     
  1621.79        500.000        3349.91     
  1618.59        500.000        3345.41     
  1615.38        500.000        3341.37     
  1612.18        500.000        3338.56     
  1608.97        500.000        3335.97     
  1605.77        500.000        3333.60     
  1602.56        500.000        3331.41     
  1599.36        500.000        3329.39     
  1596.15        500.000        3327.53     
  1592.95        500.000        3325.81     
  1589.74        500.000        3324.21     
  1586.54        500.000        3323.28     
  1583.33        500.000        3322.41     
  1580.13        500.000        3321.60     
  1576.92        500.000        3320.85     
  1573.72        500.000        3320.15     
  1570.51        500.000        3319.49     
  1567.31        500.000        3318.88     
  1564.10        500.000        3318.31     
  1560.90        500.000        3317.92     
  1557.69        500.000        3317.56     
  1554.49        500.000        3317.24     
  1551.28        500.000        3316.93     
  1548.08        500.000        3316.66     
  1544.87        500.000        3316.40     
  1541.67        500.000        3316.18     
  1538.46        500.000        3315.97     
  1535.26        500.000        3315.79     
  1532.05        500.000        3315.64     
  1528.85        500.000        3315.51     
  1525.64        500.000        3315.39     
  1522.44        500.000        3315.29     
  1519.23        500.000        3315.25     
  1516.03        500.000        3315.36     
  1512.82        500.000        3315.48     
  1509.62        500.000        3315.77     
  1506.41        500.000        3316.06     
  1503.21        500.000        3316.36     
  1500.00        500.000        3316.65     
  1496.79        500.000        3317.03     
  1493.59        500.000        3317.38     
  1490.38        500.000        3317.84     
  1487.18        500.000        3318.04     
  1483.97        500.000        3318.49     
  1480.77        500.000        3318.94     
  1477.56        500.000        3319.39     
  1474.36        500.000        3319.84     
  1471.15        500.000        3320.29     
  1467.95        500.000        3320.74     
  1464.74        500.000        3321.18     
  1461.54        500.000        3321.14     
  1458.33        500.000        3321.59     
  1455.13        500.000        3322.03     
  1451.92        500.000        3322.48     
  1448.72        500.000        3322.92     
  1445.51        500.000        3323.37     
  1442.31        500.000        3323.81     
  1439.10        500.000        3324.26     
  1435.90        500.000        3324.48     
  1432.69        500.000        3324.92     
  1429.49        500.000        3325.36     
  1426.28        500.000        3325.81     
  1423.08        500.000        3326.25     
  1419.87        500.000        3326.69     
  1416.67        500.000        3327.13     
  1413.46        500.000        3327.57     
  1410.26        500.000        3327.74     
  1407.05        500.000        3328.18     
  1403.85        500.000        3328.62     
  1400.64        500.000        3329.06     
  1397.44        500.000        3329.50     
  1394.23        500.000        3329.94     
  1391.03        500.000        3330.38     
  1387.82        500.000        3330.81     
  1384.62        500.000        3330.90     
  1381.41        500.000        3331.34     
  1378.21        500.000        3331.77     
  1375.00        500.000        3332.21     
  1371.79        500.000        3332.65     
  1368.59        500.000        3333.08     
  1365.38        500.000        3333.52     
  1362.18        500.000        3333.96     
  1358.97        500.000        3333.99     
  1355.77        500.000        3334.43     
  1352.56        500.000        3334.86     
  1349.36        500.000        3335.30     
  1346.15        500.000        3335.50     
  1342.95        500.000        3335.94     
  1339.74        500.000        3336.25     
  1336.54        500.000        3336.63     
  1333.33        500.000        3337.06     
  1330.13        500.000        3337.50     
  1326.92        500.000        3337.93     
  1323.72        500.000        3338.36     
  1320.51        500.000        3338.79     
  1317.31        500.000        3339.22     
  1314.10        500.000        3339.65     
  1310.90        500.000        3340.08     
  1307.69        500.000        3340.81     
  1304.49        500.000        3341.24     
  1301.28        500.000        3341.67     
  1298.08        500.000        3342.10     
  1294.87        500.000        3342.53     
  1291.67        500.000        3342.96     
  1288.46        500.000        3343.38     
  1285.26        500.000        3343.81     
  1282.05        500.000        3344.53     
  1278.85        500.000        3344.96     
  1275.64        500.000        3345.39     
  1272.44        500.000        3345.81     
  1269.23        500.000        3346.24     
  1266.03        500.000        3346.67     
  1262.82        500.000        3347.09     
  1259.62        500.000        3347.52     
  1256.41        500.000        3348.24     
  1253.21        500.000        3348.66     
  1250.00        500.000        3349.09     
  1246.79        500.000        3349.51     
  1243.59        500.000        3349.93     
  1240.38        500.000        3350.36     
  1237.18        500.000        3350.78     
  1233.97        500.000        3351.21     
  1230.77        500.000        3351.95     
  1227.56        500.000        3352.37     
  1224.36        500.000        3352.80     
  1221.15        500.000        3353.22     
  1217.95        500.000        3353.64     
  1214.74        500.000        3354.06     
  1211.54        500.000        3354.49     
  1208.33        500.000        3354.91     
  1205.13        500.000        3355.59     
  1201.92        500.000        3356.01     
  1198.72        500.000        3356.51     
  1195.51        500.000        3356.97     
  1192.31        500.000        3357.40     
  1189.10        500.000        3357.82     
  1185.90        500.000        3358.24     
  1182.69        500.000        3358.66     
  1179.49        500.000        3358.74     
  1176.28        500.000        3359.16     
  1173.08        500.000        3359.58     
  1169.87        500.000        3359.99     
  1166.67        500.000        3360.41     
  1163.46        500.000        3360.83     
  1160.26        500.000        3361.24     
  1157.05        500.000        3361.66     
  1153.85        500.000        3361.47     
  1150.64        500.000        3361.88     
  1147.44        500.000        3362.30     
  1144.23        500.000        3362.71     
  1141.03        500.000        3363.13     
  1137.82        500.000        3363.54     
  1134.62        500.000        3363.95     
  1131.41        500.000        3364.37     
  1128.21        500.000        3364.19     
  1125.00        500.000        3364.60     
  1121.79        500.000        3365.02     
  1118.59        500.000        3365.43     
  1115.38        500.000        3365.84     
  1112.18        500.000        3366.25     
  1108.97        500.000        3366.67     
  1105.77        500.000        3367.08     
  1102.56        500.000        3366.97     
  1099.36        500.000        3367.38     
  1096.15        500.000        3367.79     
  1092.95        500.000        3368.20     
  1089.74        500.000        3368.61     
  1086.54        500.000        3369.02     
  1083.33        500.000        3369.43     
  1080.13        500.000        3369.84     
  1076.92        500.000        3369.77     
  1073.72        500.000        3370.18     
  1070.51        500.000        3370.58     
  1067.31        500.000        3370.99     
  1064.10        500.000        3371.40     
  1060.90        500.000        3371.80     
  1057.69        500.000        3372.21     
  1054.49        500.000        3372.62     
  1051.28        500.000        3372.62     
  1048.08        500.000        3373.02     
  1044.87        500.000        3373.43     
  1041.67        500.000        3373.83     
  1038.46        500.000        3374.24     
  1035.26        500.000        3374.64     
  1032.05        500.000        3375.05     
  1028.85        500.000        3375.45     
  1025.64        500.000        3375.49     
  1022.44        500.000        3375.89     
  1019.23        500.000        3376.29     
  1016.03        500.000        3376.70     
  1012.82        500.000        3377.10     
  1009.62        500.000        3377.50     
  1006.41        500.000        3377.90     
  1003.21        500.000        3378.30     
  1000.00        500.000        3378.39     
