|6.6.6
Archiving\03_Data\fracLP/QFM_m1.5/TAY13/TAY13_6.tab                       
           1
T(K)    
  0.000000000000000E+000
  0.000000000000000E+000
           0
           3
T(K)           P(bar)         rho,kg/m3     
  2000.00        500.000        5053.94     
  1997.49        500.000        5054.68     
  1994.99        500.000        5055.41     
  1992.48        500.000        5056.15     
  1989.97        500.000        5056.89     
  1987.47        500.000        5057.62     
  1984.96        500.000        5058.36     
  1982.46        500.000        5059.09     
  1979.95        500.000        5059.83     
  1977.44        500.000        5060.56     
  1974.94        500.000        5061.29     
  1972.43        500.000        5062.03     
  1969.92        500.000        5062.76     
  1967.42        500.000        5063.49     
  1964.91        500.000        5064.22     
  1962.41        500.000        5064.95     
  1959.90        500.000        5065.69     
  1957.39        500.000        5066.42     
  1954.89        500.000        5067.15     
  1952.38        500.000        5067.88     
  1949.87        500.000        5068.60     
  1947.37        500.000        5069.33     
  1944.86        500.000        5070.06     
  1942.36        500.000        5070.79     
  1939.85        500.000        5071.52     
  1937.34        500.000        5072.25     
  1934.84        500.000        4256.21     
  1932.33        500.000        2937.65     
  1929.82        500.000        2938.24     
  1927.32        500.000        2938.84     
  1924.81        500.000        2939.56     
  1922.31        500.000        2940.05     
  1919.80        500.000        2940.63     
  1917.29        500.000        2941.23     
  1914.79        500.000        2941.83     
  1912.28        500.000        2942.43     
  1909.77        500.000        2943.02     
  1907.27        500.000        2943.62     
  1904.76        500.000        3159.41     
  1902.26        500.000        3161.27     
  1899.75        500.000        3163.68     
  1897.24        500.000        3164.65     
  1894.74        500.000        3166.34     
  1892.23        500.000        3168.09     
  1889.72        500.000        3169.40     
  1887.22        500.000        3171.49     
  1884.71        500.000        3173.37     
  1882.21        500.000        3175.40     
  1879.70        500.000        3176.82     
  1877.19        500.000        3178.42     
  1874.69        500.000        3180.01     
  1872.18        500.000        3182.47     
  1869.67        500.000        3183.31     
  1867.17        500.000        3185.56     
  1864.66        500.000        3187.62     
  1862.16        500.000        3193.46     
  1859.65        500.000        3203.65     
  1857.14        500.000        3194.00     
  1854.64        500.000        3216.58     
  1852.13        500.000        3217.44     
  1849.62        500.000        3219.58     
  1847.12        500.000        3220.92     
  1844.61        500.000        3222.71     
  1842.11        500.000        3224.96     
  1839.60        500.000        3226.59     
  1837.09        500.000        3227.87     
  1834.59        500.000        3231.42     
  1832.08        500.000        4380.41     
  1829.57        500.000        2953.11     
  1827.07        500.000        3233.31     
  1824.56        500.000        3238.46     
  1822.06        500.000        3240.45     
  1819.55        500.000        3241.92     
  1817.04        500.000        3244.60     
  1814.54        500.000        3245.46     
  1812.03        500.000        3247.26     
  1809.52        500.000        3249.53     
  1807.02        500.000        3251.52     
  1804.51        500.000        3254.37     
  1802.01        500.000        3256.03     
  1799.50        500.000        3257.45     
  1796.99        500.000        3259.96     
  1794.49        500.000        3261.57     
  1791.98        500.000        3262.25     
  1789.47        500.000        3264.96     
  1786.97        500.000        3267.60     
  1784.46        500.000        3268.63     
  1781.95        500.000        3272.62     
  1779.45        500.000        3273.33     
  1776.94        500.000        3275.09     
  1774.44        500.000        3277.75     
  1771.93        500.000        3279.31     
  1769.42        500.000        3280.27     
  1766.92        500.000        3283.60     
  1764.41        500.000        3285.00     
  1761.90        500.000        3287.22     
  1759.40        500.000        3289.47     
  1756.89        500.000        3291.81     
  1754.39        500.000        3293.15     
  1751.88        500.000        3295.46     
  1749.37        500.000        3297.28     
  1746.87        500.000        3299.65     
  1744.36        500.000        3301.98     
  1741.85        500.000        3303.53     
  1739.35        500.000        3305.72     
  1736.84        500.000        3308.51     
  1734.34        500.000        3309.32     
  1731.83        500.000        3311.77     
  1729.32        500.000        3314.46     
  1726.82        500.000        3315.56     
  1724.31        500.000        3319.43     
  1721.80        500.000        3319.77     
  1719.30        500.000        3321.02     
  1716.79        500.000        3323.85     
  1714.29        500.000        3326.11     
  1711.78        500.000        3327.07     
  1709.27        500.000        3330.55     
  1706.77        500.000        3332.93     
  1704.26        500.000        3334.57     
  1701.75        500.000        3335.76     
  1699.25        500.000        3337.95     
  1696.74        500.000        3340.78     
  1694.24        500.000        3342.84     
  1691.73        500.000        3344.72     
  1689.22        500.000        3346.00     
  1686.72        500.000        3348.80     
  1684.21        500.000        3349.12     
  1681.70        500.000        3352.34     
  1679.20        500.000        3354.89     
  1676.69        500.000        3356.71     
  1674.19        500.000        3358.24     
  1671.68        500.000        3360.29     
  1669.17        500.000        3362.87     
  1666.67        500.000        3364.80     
  1664.16        500.000        3366.52     
  1661.65        500.000        3369.37     
  1659.15        500.000        3370.45     
  1656.64        500.000        3373.05     
  1654.14        500.000        3375.28     
  1651.63        500.000        3377.86     
  1649.12        500.000        3379.23     
  1646.62        500.000        3381.54     
  1644.11        500.000        3382.88     
  1641.60        500.000        3385.07     
  1639.10        500.000        3386.90     
  1636.59        500.000        3392.27     
  1634.09        500.000        3391.93     
  1631.58        500.000        3392.56     
  1629.07        500.000        3392.80     
  1626.57        500.000        3397.27     
  1624.06        500.000        3398.23     
  1621.55        500.000        3399.05     
  1619.05        500.000        3402.86     
  1616.54        500.000        3400.54     
  1614.04        500.000        3406.32     
  1611.53        500.000        3408.30     
  1609.02        500.000        3409.87     
  1606.52        500.000        3412.50     
  1604.01        500.000        3413.95     
  1601.50        500.000        3416.51     
  1599.00        500.000        3418.61     
  1596.49        500.000        3419.21     
  1593.98        500.000        3420.96     
  1591.48        500.000        3423.90     
  1588.97        500.000        3425.82     
  1586.47        500.000        3429.68     
  1583.96        500.000        3429.61     
  1581.45        500.000        3431.57     
  1578.95        500.000        3433.19     
  1576.44        500.000        3435.51     
  1573.93        500.000        3438.82     
  1571.43        500.000        3438.35     
  1568.92        500.000        3441.83     
  1566.42        500.000        3441.83     
  1563.91        500.000        3339.65     
  1561.40        500.000        3300.84     
  1558.90        500.000        3300.69     
  1556.39        500.000        3301.92     
  1553.88        500.000        3303.39     
  1551.38        500.000        3304.15     
  1548.87        500.000        3306.00     
  1546.37        500.000        3306.89     
  1543.86        500.000        3307.53     
  1541.35        500.000        3308.92     
  1538.85        500.000        3310.69     
  1536.34        500.000        3311.99     
  1533.83        500.000        3313.16     
  1531.33        500.000        3314.25     
  1528.82        500.000        3315.52     
  1526.32        500.000        3315.64     
  1523.81        500.000        3317.56     
  1521.30        500.000        3317.10     
  1518.80        500.000        3319.50     
  1516.29        500.000        3320.09     
  1513.78        500.000        3321.99     
  1511.28        500.000        3323.91     
  1508.77        500.000        3324.98     
  1506.27        500.000        3325.30     
  1503.76        500.000        3326.63     
  1501.25        500.000        3327.57     
  1498.75        500.000        3328.93     
  1496.24        500.000        3329.85     
  1493.73        500.000        3331.54     
  1491.23        500.000        3332.96     
  1488.72        500.000        3332.65     
  1486.22        500.000        3334.85     
  1483.71        500.000        3336.24     
  1481.20        500.000        3335.57     
  1478.70        500.000        3336.29     
  1476.19        500.000        3337.12     
  1473.68        500.000        3338.17     
  1471.18        500.000        3340.23     
  1468.67        500.000        3340.41     
  1466.17        500.000        3341.03     
  1463.66        500.000        3342.44     
  1461.15        500.000        3349.52     
  1458.65        500.000        3344.58     
  1456.14        500.000        3345.76     
  1453.63        500.000        3347.04     
  1451.13        500.000        3348.61     
  1448.62        500.000        3337.16     
  1446.12        500.000        3337.25     
  1443.61        500.000        3339.50     
  1441.10        500.000        3340.53     
  1438.60        500.000        3341.91     
  1436.09        500.000        3344.31     
  1433.58        500.000        3346.29     
  1431.08        500.000        3348.05     
  1428.57        500.000        3349.42     
  1426.07        500.000        3352.47     
  1423.56        500.000        3351.95     
  1421.05        500.000        3354.52     
  1418.55        500.000        3354.74     
  1416.04        500.000        3356.85     
  1413.53        500.000        3333.65     
  1411.03        500.000        3328.24     
  1408.52        500.000        3330.15     
  1406.02        500.000        3333.06     
  1403.51        500.000        3335.41     
  1401.00        500.000        3337.75     
  1398.50        500.000        3340.51     
  1395.99        500.000        3260.77     
  1393.48        500.000        3148.30     
  1390.98        500.000        3151.09     
  1388.47        500.000        3153.99     
  1385.96        500.000        3157.16     
  1383.46        500.000        3159.97     
  1380.95        500.000        3162.95     
  1378.45        500.000        3165.87     
  1375.94        500.000        3168.98     
  1373.43        500.000        3171.93     
  1370.93        500.000        3174.82     
  1368.42        500.000        3177.86     
  1365.91        500.000        3207.00     
  1363.41        500.000        3214.94     
  1360.90        500.000        3219.24     
  1358.40        500.000        3223.43     
  1355.89        500.000        3228.00     
  1353.38        500.000        3232.22     
  1350.88        500.000        3236.68     
  1348.37        500.000        3240.83     
  1345.86        500.000        3245.07     
  1343.36        500.000        3250.10     
  1340.85        500.000        3252.21     
  1338.35        500.000        3256.31     
  1335.84        500.000        3259.13     
  1333.33        500.000        3262.64     
  1330.83        500.000        3265.88     
  1328.32        500.000        3269.50     
  1325.81        500.000        3272.91     
  1323.31        500.000        3276.13     
  1320.80        500.000        3279.43     
  1318.30        500.000        3282.29     
  1315.79        500.000        3285.53     
  1313.28        500.000        3288.43     
  1310.78        500.000        3291.23     
  1308.27        500.000        3294.65     
  1305.76        500.000        3297.18     
  1303.26        500.000        3300.27     
  1300.75        500.000        3302.84     
  1298.25        500.000        3305.80     
  1295.74        500.000        3309.16     
  1293.23        500.000        3311.82     
  1290.73        500.000        3314.62     
  1288.22        500.000        3317.36     
  1285.71        500.000        3319.47     
  1283.21        500.000        3321.97     
  1280.70        500.000        3324.18     
  1278.20        500.000        3326.98     
  1275.69        500.000        3327.18     
  1273.18        500.000        3330.79     
  1270.68        500.000        3332.49     
  1268.17        500.000        2827.39     
  1265.66        500.000        2822.26     
  1263.16        500.000        2826.83     
  1260.65        500.000        2831.12     
  1258.15        500.000        2835.69     
  1255.64        500.000        2839.68     
  1253.13        500.000        2841.20     
  1250.63        500.000        2857.25     
  1248.12        500.000        2850.32     
  1245.61        500.000        2853.93     
  1243.11        500.000        2857.43     
  1240.60        500.000        2865.65     
  1238.10        500.000        2869.88     
  1235.59        500.000        2871.61     
  1233.08        500.000        2872.90     
  1230.58        500.000        2874.20     
  1228.07        500.000        2874.31     
  1225.56        500.000        2875.69     
  1223.06        500.000        2876.55     
  1220.55        500.000        2877.22     
  1218.05        500.000        2877.52     
  1215.54        500.000        2877.36     
  1213.03        500.000        2877.33     
  1210.53        500.000        2877.19     
  1208.02        500.000        2698.13     
  1205.51        500.000        2689.63     
  1203.01        500.000        2688.23     
  1200.50        500.000        2686.28     
  1197.99        500.000        2683.51     
  1195.49        500.000        2673.18     
  1192.98        500.000        2686.27     
  1190.48        500.000        2664.63     
  1187.97        500.000        2647.86     
  1185.46        500.000        2636.25     
  1182.96        500.000        2636.32     
  1180.45        500.000        2636.39     
  1177.94        500.000        2636.47     
  1175.44        500.000        2636.54     
  1172.93        500.000        2636.61     
  1170.43        500.000        2636.69     
  1167.92        500.000        2636.76     
  1165.41        500.000        2636.84     
  1162.91        500.000        2636.92     
  1160.40        500.000        2637.00     
  1157.89        500.000        2637.07     
  1155.39        500.000        2637.15     
  1152.88        500.000        2637.24     
  1150.38        500.000        2637.32     
  1147.87        500.000        2637.40     
  1145.36        500.000        2637.48     
  1142.86        500.000        2637.56     
  1140.35        500.000        2637.65     
  1137.84        500.000        2637.73     
  1135.34        500.000        2637.82     
  1132.83        500.000        2637.90     
  1130.33        500.000        2637.98     
  1127.82        500.000        2638.07     
  1125.31        500.000        2638.16     
  1122.81        500.000        2638.24     
  1120.30        500.000        2638.33     
  1117.79        500.000        2638.42     
  1115.29        500.000        2638.51     
  1112.78        500.000        2638.59     
  1110.28        500.000        2639.01     
  1107.77        500.000        2639.09     
  1105.26        500.000        2639.17     
  1102.76        500.000        2638.94     
  1100.25        500.000        2639.03     
  1097.74        500.000        2639.12     
  1095.24        500.000        2639.21     
  1092.73        500.000        2639.30     
  1090.23        500.000        2639.39     
  1087.72        500.000        2639.48     
  1085.21        500.000        2639.57     
  1082.71        500.000        2639.66     
  1080.20        500.000        2639.75     
  1077.69        500.000        2639.84     
  1075.19        500.000        2639.93     
  1072.68        500.000        2640.03     
  1070.18        500.000        2638.86     
  1067.67        500.000        2638.96     
  1065.16        500.000        2639.06     
  1062.66        500.000        2639.16     
  1060.15        500.000        2639.26     
  1057.64        500.000        2640.58     
  1055.14        500.000        2640.67     
  1052.63        500.000        2640.76     
  1050.13        500.000        2640.85     
  1047.62        500.000        2640.95     
  1045.11        500.000        2641.04     
  1042.61        500.000        2641.13     
  1040.10        500.000        2641.22     
  1037.59        500.000        2641.31     
  1035.09        500.000        2641.41     
  1032.58        500.000        2641.50     
  1030.08        500.000        2641.59     
  1027.57        500.000        2641.69     
  1025.06        500.000        2641.78     
  1022.56        500.000        2641.87     
  1020.05        500.000        2641.96     
  1017.54        500.000        2642.06     
  1015.04        500.000        2642.15     
  1012.53        500.000        2642.24     
  1010.03        500.000        2642.34     
  1007.52        500.000        2642.43     
  1005.01        500.000        2642.52     
  1002.51        500.000        2642.62     
  1000.00        500.000        2642.71     
