|6.6.6
Archiving\03_Data\frac/QFM_m4.25/NWA1068/NWA1068_6.tab                    
           1
T(K)    
  0.000000000000000E+000
  0.000000000000000E+000
           0
           3
T(K)           P(bar)         rho,kg/m3     
  2000.00        2500.00        3681.23     
  1997.49        2500.00        3681.62     
  1994.99        2500.00        3682.00     
  1992.48        2500.00        3682.39     
  1989.97        2500.00        3682.78     
  1987.47        2500.00        3683.16     
  1984.96        2500.00        3683.55     
  1982.46        2500.00        3683.93     
  1979.95        2500.00        3684.32     
  1977.44        2500.00        3684.70     
  1974.94        2500.00        3685.09     
  1972.43        2500.00        3685.47     
  1969.92        2500.00        3685.86     
  1967.42        2500.00        3686.24     
  1964.91        2500.00        3686.63     
  1962.41        2500.00        3687.01     
  1959.90        2500.00        3687.39     
  1957.39        2500.00        3687.78     
  1954.89        2500.00        3688.16     
  1952.38        2500.00        3688.55     
  1949.87        2500.00        3688.93     
  1947.37        2500.00        3689.31     
  1944.86        2500.00        3689.70     
  1942.36        2500.00        3690.08     
  1939.85        2500.00        3690.46     
  1937.34        2500.00        3690.85     
  1934.84        2500.00        3691.23     
  1932.33        2500.00        3691.61     
  1929.82        2500.00        3691.99     
  1927.32        2500.00        3692.38     
  1924.81        2500.00        3692.76     
  1922.31        2500.00        3693.14     
  1919.80        2500.00        3693.52     
  1917.29        2500.00        3693.90     
  1914.79        2500.00        3694.29     
  1912.28        2500.00        3694.67     
  1909.77        2500.00        3695.05     
  1907.27        2500.00        3695.43     
  1904.76        2500.00        3695.81     
  1902.26        2500.00        3696.19     
  1899.75        2500.00        3696.57     
  1897.24        2500.00        3696.95     
  1894.74        2500.00        3697.34     
  1892.23        2500.00        3697.72     
  1889.72        2500.00        3698.10     
  1887.22        2500.00        3698.48     
  1884.71        2500.00        3698.86     
  1882.21        2500.00        3699.24     
  1879.70        2500.00        3699.62     
  1877.19        2500.00        3700.00     
  1874.69        2500.00        3700.38     
  1872.18        2500.00        3700.76     
  1869.67        2500.00        3701.13     
  1867.17        2500.00        3701.51     
  1864.66        2500.00        3701.89     
  1862.16        2500.00        3702.27     
  1859.65        2500.00        3702.65     
  1857.14        2500.00        3703.03     
  1854.64        2500.00        3703.41     
  1852.13        2500.00        3703.79     
  1849.62        2500.00        3704.16     
  1847.12        2500.00        3704.54     
  1844.61        2500.00        3704.92     
  1842.11        2500.00        3705.30     
  1839.60        2500.00        3705.68     
  1837.09        2500.00        3706.05     
  1834.59        2500.00        3706.43     
  1832.08        2500.00        3706.81     
  1829.57        2500.00        3707.19     
  1827.07        2500.00        3707.56     
  1824.56        2500.00        3707.94     
  1822.06        2500.00        3708.32     
  1819.55        2500.00        3708.69     
  1817.04        2500.00        3709.07     
  1814.54        2500.00        3709.45     
  1812.03        2500.00        3709.82     
  1809.52        2500.00        3710.20     
  1807.02        2500.00        3710.58     
  1804.51        2500.00        3710.95     
  1802.01        2500.00        3711.33     
  1799.50        2500.00        3711.70     
  1796.99        2500.00        3712.08     
  1794.49        2500.00        3712.45     
  1791.98        2500.00        3712.83     
  1789.47        2500.00        3713.20     
  1786.97        2500.00        3713.58     
  1784.46        2500.00        3713.95     
  1781.95        2500.00        3714.33     
  1779.45        2500.00        3714.70     
  1776.94        2500.00        3715.08     
  1774.44        2500.00        3715.45     
  1771.93        2500.00        3715.83     
  1769.42        2500.00        3716.20     
  1766.92        2500.00        3716.57     
  1764.41        2500.00        3716.95     
  1761.90        2500.00        3717.32     
  1759.40        2500.00        3717.70     
  1756.89        2500.00        3718.07     
  1754.39        2500.00        3718.44     
  1751.88        2500.00        3718.82     
  1749.37        2500.00        3719.19     
  1746.87        2500.00        3719.56     
  1744.36        2500.00        3719.93     
  1741.85        2500.00        3720.31     
  1739.35        2500.00        3720.68     
  1736.84        2500.00        3721.05     
  1734.34        2500.00        3721.42     
  1731.83        2500.00        3721.80     
  1729.32        2500.00        3722.17     
  1726.82        2500.00        3722.54     
  1724.31        2500.00        3722.91     
  1721.80        2500.00        3723.28     
  1719.30        2500.00        3723.66     
  1716.79        2500.00        3724.03     
  1714.29        2500.00        3724.40     
  1711.78        2500.00        3724.77     
  1709.27        2500.00        3725.14     
  1706.77        2500.00        3725.51     
  1704.26        2500.00        3725.88     
  1701.75        2500.00        3726.25     
  1699.25        2500.00        3726.62     
  1696.74        2500.00        3726.99     
  1694.24        2500.00        3727.37     
  1691.73        2500.00        3727.74     
  1689.22        2500.00        3733.21     
  1686.72        2500.00        3737.88     
  1684.21        2500.00        3738.09     
  1681.70        2500.00        3738.42     
  1679.20        2500.00        3738.72     
  1676.69        2500.00        3739.02     
  1674.19        2500.00        3739.34     
  1671.68        2500.00        3739.53     
  1669.17        2500.00        3739.94     
  1666.67        2500.00        3740.12     
  1664.16        2500.00        3595.36     
  1661.65        2500.00        3439.48     
  1659.15        2500.00        3408.68     
  1656.64        2500.00        3411.07     
  1654.14        2500.00        3413.31     
  1651.63        2500.00        3415.89     
  1649.12        2500.00        3418.05     
  1646.62        2500.00        3420.23     
  1644.11        2500.00        3422.30     
  1641.60        2500.00        3424.67     
  1639.10        2500.00        3426.24     
  1636.59        2500.00        3428.65     
  1634.09        2500.00        3431.08     
  1631.58        2500.00        3433.45     
  1629.07        2500.00        3433.80     
  1626.57        2500.00        3437.68     
  1624.06        2500.00        3439.51     
  1621.55        2500.00        3441.60     
  1619.05        2500.00        3445.16     
  1616.54        2500.00        3446.86     
  1614.04        2500.00        3446.31     
  1611.53        2500.00        3450.83     
  1609.02        2500.00        3452.85     
  1606.52        2500.00        3455.14     
  1604.01        2500.00        3456.41     
  1601.50        2500.00        3460.48     
  1599.00        2500.00        3461.53     
  1596.49        2500.00        3464.39     
  1593.98        2500.00        3466.77     
  1591.48        2500.00        3468.41     
  1588.97        2500.00        3470.62     
  1586.47        2500.00        3473.63     
  1583.96        2500.00        3474.17     
  1581.45        2500.00        3477.01     
  1578.95        2500.00        3478.56     
  1576.44        2500.00        3482.06     
  1573.93        2500.00        3483.91     
  1571.43        2500.00        3485.90     
  1568.92        2500.00        3488.11     
  1566.42        2500.00        3490.59     
  1563.91        2500.00        3492.76     
  1561.40        2500.00        3494.56     
  1558.90        2500.00        3496.89     
  1556.39        2500.00        3500.32     
  1553.88        2500.00        3501.29     
  1551.38        2500.00        3510.41     
  1548.87        2500.00        3505.07     
  1546.37        2500.00        3508.65     
  1543.86        2500.00        3508.53     
  1541.35        2500.00        3512.31     
  1538.85        2500.00        3514.04     
  1536.34        2500.00        3515.41     
  1533.83        2500.00        3519.01     
  1531.33        2500.00        3520.90     
  1528.82        2500.00        3523.47     
  1526.32        2500.00        3525.03     
  1523.81        2500.00        3526.82     
  1521.30        2500.00        3528.95     
  1518.80        2500.00        3531.07     
  1516.29        2500.00        3534.36     
  1513.78        2500.00        3414.56     
  1511.28        2500.00        3316.97     
  1508.77        2500.00        3317.80     
  1506.27        2500.00        3319.30     
  1503.76        2500.00        3320.60     
  1501.25        2500.00        3321.59     
  1498.75        2500.00        3322.72     
  1496.24        2500.00        3323.74     
  1493.73        2500.00        3323.79     
  1491.23        2500.00        3321.02     
  1488.72        2500.00        3300.90     
  1486.22        2500.00        3303.42     
  1483.71        2500.00        3305.44     
  1481.20        2500.00        3307.41     
  1478.70        2500.00        3309.98     
  1476.19        2500.00        3312.07     
  1473.68        2500.00        3314.23     
  1471.18        2500.00        3316.54     
  1468.67        2500.00        3318.49     
  1466.17        2500.00        3322.41     
  1463.66        2500.00        3330.08     
  1461.15        2500.00        3340.12     
  1458.65        2500.00        3342.48     
  1456.14        2500.00        3344.51     
  1453.63        2500.00        3346.51     
  1451.13        2500.00        3348.33     
  1448.62        2500.00        3350.68     
  1446.12        2500.00        3352.87     
  1443.61        2500.00        3354.78     
  1441.10        2500.00        3356.89     
  1438.60        2500.00        3358.98     
  1436.09        2500.00        3361.00     
  1433.58        2500.00        3359.18     
  1431.08        2500.00        3369.10     
  1428.57        2500.00        3367.52     
  1426.07        2500.00        3369.55     
  1423.56        2500.00        3371.82     
  1421.05        2500.00        3375.07     
  1418.55        2500.00        3376.66     
  1416.04        2500.00        3378.35     
  1413.53        2500.00        3380.64     
  1411.03        2500.00        3382.90     
  1408.52        2500.00        3385.03     
  1406.02        2500.00        3209.42     
  1403.51        2500.00        3202.88     
  1401.00        2500.00        3206.65     
  1398.50        2500.00        3215.11     
  1395.99        2500.00        3216.06     
  1393.48        2500.00        3217.58     
  1390.98        2500.00        3220.76     
  1388.47        2500.00        3225.27     
  1385.96        2500.00        3228.79     
  1383.46        2500.00        3232.20     
  1380.95        2500.00        3234.85     
  1378.45        2500.00        3238.89     
  1375.94        2500.00        3242.19     
  1373.43        2500.00        3245.20     
  1370.93        2500.00        3248.58     
  1368.42        2500.00        3251.77     
  1365.91        2500.00        3255.23     
  1363.41        2500.00        3258.53     
  1360.90        2500.00        3261.32     
  1358.40        2500.00        3262.99     
  1355.89        2500.00        3267.09     
  1353.38        2500.00        3269.49     
  1350.88        2500.00        3272.35     
  1348.37        2500.00        3274.59     
  1345.86        2500.00        3277.31     
  1343.36        2500.00        3279.73     
  1340.85        2500.00        3281.11     
  1338.35        2500.00        3284.46     
  1335.84        2500.00        3298.88     
  1333.33        2500.00        3328.01     
  1330.83        2500.00        3329.27     
  1328.32        2500.00        3330.60     
  1325.81        2500.00        3331.74     
  1323.31        2500.00        3333.29     
  1320.80        2500.00        3334.49     
  1318.30        2500.00        3334.54     
  1315.79        2500.00        3334.93     
  1313.28        2500.00        3336.13     
  1310.78        2500.00        3336.06     
  1308.27        2500.00        3337.20     
  1305.76        2500.00        3336.82     
  1303.26        2500.00        3336.88     
  1300.75        2500.00        3336.61     
  1298.25        2500.00        3335.93     
  1295.74        2500.00        2849.01     
  1293.23        2500.00        2850.45     
  1290.73        2500.00        2852.40     
  1288.22        2500.00        2853.14     
  1285.71        2500.00        2852.22     
  1283.21        2500.00        2849.42     
  1280.70        2500.00        2844.31     
  1278.20        2500.00        2838.30     
  1275.69        2500.00        2835.71     
  1273.18        2500.00        2838.21     
  1270.68        2500.00        2837.66     
  1268.17        2500.00        2888.39     
  1265.66        2500.00        2991.82     
  1263.16        2500.00        2831.37     
  1260.65        2500.00        2840.97     
  1258.15        2500.00        2848.83     
  1255.64        2500.00        2831.92     
  1253.13        2500.00        2643.34     
  1250.63        2500.00        2923.20     
  1248.12        2500.00        2896.93     
  1245.61        2500.00        2817.54     
  1243.11        2500.00        2920.82     
  1240.60        2500.00        2801.57     
  1238.10        2500.00        2837.89     
  1235.59        2500.00        2839.41     
  1233.08        2500.00        2824.24     
  1230.58        2500.00        2676.84     
  1228.07        2500.00        2670.19     
  1225.56        2500.00        2670.31     
  1223.06        2500.00        2676.78     
  1220.55        2500.00        2677.16     
  1218.05        2500.00        2677.29     
  1215.54        2500.00        2677.42     
  1213.03        2500.00        2670.78     
  1210.53        2500.00        2677.67     
  1208.02        2500.00        2677.80     
  1205.51        2500.00        2677.93     
  1203.01        2500.00        2678.06     
  1200.50        2500.00        2678.19     
  1197.99        2500.00        2678.31     
  1195.49        2500.00        2671.61     
  1192.98        2500.00        2678.57     
  1190.48        2500.00        2671.83     
  1187.97        2500.00        2678.83     
  1185.46        2500.00        2678.95     
  1182.96        2500.00        2679.08     
  1180.45        2500.00        2679.21     
  1177.94        2500.00        2679.34     
  1175.44        2500.00        2679.47     
  1172.93        2500.00        2679.59     
  1170.43        2500.00        2679.72     
  1167.92        2500.00        2679.85     
  1165.41        2500.00        2679.99     
  1162.91        2500.00        2680.11     
  1160.40        2500.00        2680.23     
  1157.89        2500.00        2680.36     
  1155.39        2500.00        2680.50     
  1152.88        2500.00        2680.62     
  1150.38        2500.00        2680.75     
  1147.87        2500.00        2680.98     
  1145.36        2500.00        2681.00     
  1142.86        2500.00        2681.13     
  1140.35        2500.00        2681.26     
  1137.84        2500.00        2681.39     
  1135.34        2500.00        2681.51     
  1132.83        2500.00        2681.64     
  1130.33        2500.00        2681.77     
  1127.82        2500.00        2681.90     
  1125.31        2500.00        2682.02     
  1122.81        2500.00        2682.15     
  1120.30        2500.00        2682.28     
  1117.79        2500.00        2682.41     
  1115.29        2500.00        2682.54     
  1112.78        2500.00        2682.66     
  1110.28        2500.00        2682.79     
  1107.77        2500.00        2682.92     
  1105.26        2500.00        2683.05     
  1102.76        2500.00        2683.18     
  1100.25        2500.00        2683.30     
  1097.74        2500.00        2683.43     
  1095.24        2500.00        2683.56     
  1092.73        2500.00        2683.68     
  1090.23        2500.00        2683.83     
  1087.72        2500.00        2683.96     
  1085.21        2500.00        2684.06     
  1082.71        2500.00        2684.19     
  1080.20        2500.00        2684.32     
  1077.69        2500.00        2684.44     
  1075.19        2500.00        2684.57     
  1072.68        2500.00        2684.69     
  1070.18        2500.00        2684.82     
  1067.67        2500.00        2684.95     
  1065.16        2500.00        2685.07     
  1062.66        2500.00        2685.20     
  1060.15        2500.00        2685.32     
  1057.64        2500.00        2685.45     
  1055.14        2500.00        2685.57     
  1052.63        2500.00        2685.70     
  1050.13        2500.00        2685.82     
  1047.62        2500.00        2685.95     
  1045.11        2500.00        2686.08     
  1042.61        2500.00        2686.20     
  1040.10        2500.00        2686.33     
  1037.59        2500.00        2686.45     
  1035.09        2500.00        2686.57     
  1032.58        2500.00        2686.70     
  1030.08        2500.00        2686.82     
  1027.57        2500.00        2686.95     
  1025.06        2500.00        2687.07     
  1022.56        2500.00        2687.20     
  1020.05        2500.00        2687.32     
  1017.54        2500.00        2687.44     
  1015.04        2500.00        2687.57     
  1012.53        2500.00        2687.69     
  1010.03        2500.00        2687.81     
  1007.52        2500.00        2687.94     
  1005.01        2500.00        2688.06     
  1002.51        2500.00        2688.18     
  1000.00        2500.00        2688.31     
