|6.6.6
Archiving\03_Data\eqLP/QFM_m4.25/YM20/YM20_6.tab                        
           1
T(K)    
  0.000000000000000E+000
  0.000000000000000E+000
           0
           3
T(K)           P(bar)         rho,kg/m3     
  2000.00        500.000        5145.98     
  1996.79        500.000        5146.94     
  1993.59        500.000        5147.91     
  1990.38        500.000        5148.87     
  1987.18        500.000        5149.84     
  1983.97        500.000        5150.80     
  1980.77        500.000        5151.76     
  1977.56        500.000        5152.72     
  1974.36        500.000        5153.69     
  1971.15        500.000        5154.65     
  1967.95        500.000        5155.61     
  1964.74        500.000        5156.57     
  1961.54        500.000        5157.52     
  1958.33        500.000        5158.48     
  1955.13        500.000        5159.44     
  1951.92        500.000        5160.39     
  1948.72        500.000        5161.35     
  1945.51        500.000        5162.30     
  1942.31        500.000        5163.26     
  1939.10        500.000        5164.21     
  1935.90        500.000        5165.17     
  1932.69        500.000        5166.12     
  1929.49        500.000        5167.07     
  1926.28        500.000        5168.02     
  1923.08        500.000        5168.97     
  1919.87        500.000        5169.92     
  1916.67        500.000        5170.87     
  1913.46        500.000        5171.82     
  1910.26        500.000        5172.76     
  1907.05        500.000        5173.71     
  1903.85        500.000        5174.66     
  1900.64        500.000        5175.60     
  1897.44        500.000        5176.55     
  1894.23        500.000        5177.49     
  1891.03        500.000        4561.59     
  1887.82        500.000        3598.03     
  1884.62        500.000        3418.31     
  1881.41        500.000        3346.11     
  1878.21        500.000        3305.92     
  1875.00        500.000        3218.34     
  1871.79        500.000        3213.16     
  1868.59        500.000        3210.10     
  1865.38        500.000        3207.68     
  1862.18        500.000        3206.42     
  1858.97        500.000        3206.70     
  1855.77        500.000        3207.92     
  1852.56        500.000        3209.05     
  1849.36        500.000        3210.10     
  1846.15        500.000        3211.08     
  1842.95        500.000        3213.14     
  1839.74        500.000        3215.04     
  1836.54        500.000        3216.81     
  1833.33        500.000        3218.46     
  1830.13        500.000        3220.01     
  1826.92        500.000        3221.47     
  1823.72        500.000        3222.85     
  1820.51        500.000        3224.16     
  1817.31        500.000        3225.55     
  1814.10        500.000        3226.87     
  1810.90        500.000        3228.14     
  1807.69        500.000        3229.36     
  1804.49        500.000        3231.05     
  1801.28        500.000        3232.67     
  1798.08        500.000        3234.28     
  1794.87        500.000        3236.00     
  1791.67        500.000        3237.88     
  1788.46        500.000        3239.69     
  1785.26        500.000        3241.44     
  1782.05        500.000        3243.13     
  1778.85        500.000        3244.76     
  1775.64        500.000        3246.34     
  1772.44        500.000        3247.87     
  1769.23        500.000        3249.36     
  1766.03        500.000        3251.07     
  1762.82        500.000        3252.73     
  1759.62        500.000        3254.35     
  1756.41        500.000        3255.92     
  1753.21        500.000        3257.46     
  1750.00        500.000        3258.95     
  1746.79        500.000        3260.41     
  1743.59        500.000        3261.84     
  1740.38        500.000        3263.41     
  1737.18        500.000        3264.94     
  1733.97        500.000        3266.44     
  1730.77        500.000        3267.91     
  1727.56        500.000        3269.35     
  1724.36        500.000        3270.76     
  1721.15        500.000        3272.14     
  1717.95        500.000        3273.49     
  1714.74        500.000        3274.91     
  1711.54        500.000        3276.30     
  1708.33        500.000        3277.67     
  1705.13        500.000        3279.02     
  1701.92        500.000        3280.34     
  1698.72        500.000        3281.64     
  1695.51        500.000        3282.92     
  1692.31        500.000        3284.18     
  1689.10        500.000        3285.43     
  1685.90        500.000        3286.66     
  1682.69        500.000        3287.88     
  1679.49        500.000        3289.08     
  1676.28        500.000        3290.26     
  1673.08        500.000        3291.43     
  1669.87        500.000        3292.58     
  1666.67        500.000        3293.71     
  1663.46        500.000        3294.81     
  1660.26        500.000        3295.90     
  1657.05        500.000        3296.97     
  1653.85        500.000        3298.04     
  1650.64        500.000        3299.09     
  1647.44        500.000        3300.13     
  1644.23        500.000        3301.15     
  1641.03        500.000        3302.17     
  1637.82        500.000        3303.14     
  1634.62        500.000        3304.10     
  1631.41        500.000        3305.05     
  1628.21        500.000        3305.99     
  1625.00        500.000        3306.92     
  1621.79        500.000        3307.85     
  1618.59        500.000        3308.77     
  1615.38        500.000        3309.68     
  1612.18        500.000        3310.54     
  1608.97        500.000        3311.39     
  1605.77        500.000        3312.24     
  1602.56        500.000        3313.08     
  1599.36        500.000        3313.92     
  1596.15        500.000        3314.75     
  1592.95        500.000        3315.58     
  1589.74        500.000        3316.40     
  1586.54        500.000        3316.03     
  1583.33        500.000        3315.12     
  1580.13        500.000        3314.35     
  1576.92        500.000        3313.62     
  1573.72        500.000        3313.05     
  1570.51        500.000        3312.51     
  1567.31        500.000        3312.00     
  1564.10        500.000        3311.51     
  1560.90        500.000        3311.23     
  1557.69        500.000        3310.96     
  1554.49        500.000        3310.70     
  1551.28        500.000        3310.46     
  1548.08        500.000        3310.23     
  1544.87        500.000        3310.02     
  1541.67        500.000        3309.81     
  1538.46        500.000        3309.63     
  1535.26        500.000        3309.59     
  1532.05        500.000        3309.55     
  1528.85        500.000        3309.53     
  1525.64        500.000        3309.51     
  1522.44        500.000        3309.50     
  1519.23        500.000        3309.50     
  1516.03        500.000        3309.50     
  1512.82        500.000        3309.51     
  1509.62        500.000        3309.60     
  1506.41        500.000        3309.69     
  1503.21        500.000        3309.79     
  1500.00        500.000        3309.89     
  1496.79        500.000        3309.99     
  1493.59        500.000        3310.11     
  1490.38        500.000        3310.22     
  1487.18        500.000        3310.34     
  1483.97        500.000        3310.50     
  1480.77        500.000        3310.66     
  1477.56        500.000        3310.82     
  1474.36        500.000        3310.99     
  1471.15        500.000        3311.16     
  1467.95        500.000        3311.34     
  1464.74        500.000        3311.52     
  1461.54        500.000        3311.70     
  1458.33        500.000        3311.90     
  1455.13        500.000        3312.10     
  1451.92        500.000        3312.31     
  1448.72        500.000        3312.55     
  1445.51        500.000        3312.83     
  1442.31        500.000        3313.11     
  1439.10        500.000        3313.39     
  1435.90        500.000        3313.67     
  1432.69        500.000        3314.00     
  1429.49        500.000        3314.32     
  1426.28        500.000        3314.67     
  1423.08        500.000        3313.86     
  1419.87        500.000        3312.22     
  1416.67        500.000        3310.64     
  1413.46        500.000        3311.07     
  1410.26        500.000        3308.01     
  1407.05        500.000        3308.45     
  1403.85        500.000        3308.88     
  1400.64        500.000        3309.32     
  1397.44        500.000        3309.76     
  1394.23        500.000        3310.19     
  1391.03        500.000        3310.63     
  1387.82        500.000        3311.06     
  1384.62        500.000        3301.87     
  1381.41        500.000        3302.30     
  1378.21        500.000        3302.73     
  1375.00        500.000        3303.16     
  1371.79        500.000        3303.59     
  1368.59        500.000        3304.02     
  1365.38        500.000        3304.45     
  1362.18        500.000        3304.87     
  1358.97        500.000        3299.06     
  1355.77        500.000        3299.48     
  1352.56        500.000        3299.91     
  1349.36        500.000        3300.33     
  1346.15        500.000        3300.75     
  1342.95        500.000        3301.18     
  1339.74        500.000        3301.60     
  1336.54        500.000        3302.02     
  1333.33        500.000        3297.72     
  1330.13        500.000        3298.14     
  1326.92        500.000        3298.56     
  1323.72        500.000        3298.97     
  1320.51        500.000        3299.39     
  1317.31        500.000        3299.81     
  1314.10        500.000        3300.23     
  1310.90        500.000        3300.65     
  1307.69        500.000        3297.21     
  1304.49        500.000        3297.19     
  1301.28        500.000        3281.18     
  1298.08        500.000        3256.98     
  1294.87        500.000        3257.34     
  1291.67        500.000        3257.74     
  1288.46        500.000        3258.15     
  1285.26        500.000        3258.55     
  1282.05        500.000        3258.77     
  1278.85        500.000        3259.17     
  1275.64        500.000        3259.58     
  1272.44        500.000        3259.98     
  1269.23        500.000        3260.39     
  1266.03        500.000        3260.79     
  1262.82        500.000        3261.19     
  1259.62        500.000        3261.60     
  1256.41        500.000        3261.65     
  1253.21        500.000        3262.05     
  1250.00        500.000        3262.45     
  1246.79        500.000        3262.86     
  1243.59        500.000        3263.26     
  1240.38        500.000        3263.66     
  1237.18        500.000        3264.06     
  1233.97        500.000        3264.46     
  1230.77        500.000        3264.54     
  1227.56        500.000        3264.94     
  1224.36        500.000        3265.34     
  1221.15        500.000        3265.74     
  1217.95        500.000        3266.14     
  1214.74        500.000        3266.54     
  1211.54        500.000        3266.94     
  1208.33        500.000        3267.34     
  1205.13        500.000        3267.44     
  1201.92        500.000        3267.84     
  1198.72        500.000        3268.23     
  1195.51        500.000        3268.63     
  1192.31        500.000        3269.03     
  1189.10        500.000        3269.43     
  1185.90        500.000        3269.82     
  1182.69        500.000        3270.22     
  1179.49        500.000        3270.35     
  1176.28        500.000        3270.75     
  1173.08        500.000        3271.14     
  1169.87        500.000        3271.54     
  1166.67        500.000        3271.93     
  1163.46        500.000        3272.33     
  1160.26        500.000        3272.72     
  1157.05        500.000        3273.12     
  1153.85        500.000        3273.27     
  1150.64        500.000        3273.67     
  1147.44        500.000        3274.06     
  1144.23        500.000        3274.45     
  1141.03        500.000        3274.85     
  1137.82        500.000        3275.24     
  1134.62        500.000        3275.63     
  1131.41        500.000        3276.03     
  1128.21        500.000        3276.21     
  1125.00        500.000        3276.60     
  1121.79        500.000        3276.99     
  1118.59        500.000        3277.38     
  1115.38        500.000        3277.77     
  1112.18        500.000        3278.17     
  1108.97        500.000        3278.56     
  1105.77        500.000        3278.95     
  1102.56        500.000        3279.16     
  1099.36        500.000        3279.55     
  1096.15        500.000        3279.93     
  1092.95        500.000        3280.32     
  1089.74        500.000        3280.71     
  1086.54        500.000        3281.10     
  1083.33        500.000        3281.49     
  1080.13        500.000        3281.88     
  1076.92        500.000        3282.12     
  1073.72        500.000        3282.50     
  1070.51        500.000        3282.89     
  1067.31        500.000        3283.28     
  1064.10        500.000        3283.66     
  1060.90        500.000        3284.05     
  1057.69        500.000        3284.44     
  1054.49        500.000        3284.82     
  1051.28        500.000        3285.10     
  1048.08        500.000        3285.47     
  1044.87        500.000        3285.84     
  1041.67        500.000        3286.23     
  1038.46        500.000        3286.60     
  1035.26        500.000        3286.98     
  1032.05        500.000        3287.35     
  1028.85        500.000        3287.74     
  1025.64        500.000        3288.11     
  1022.44        500.000        3288.50     
  1019.23        500.000        3288.88     
  1016.03        500.000        3289.27     
  1012.82        500.000        3289.66     
  1009.62        500.000        3290.05     
  1006.41        500.000        3290.43     
  1003.21        500.000        3290.82     
  1000.00        500.000        3291.11     
