|6.6.6
Archiving\03_Data\fracLP/QFM_m3.25/GRV/GRV_6.tab                          
           1
T(K)    
  0.000000000000000E+000
  0.000000000000000E+000
           0
           3
T(K)           P(bar)         rho,kg/m3     
  2000.00        500.000        3552.33     
  1997.49        500.000        3552.70     
  1994.99        500.000        3553.07     
  1992.48        500.000        3553.44     
  1989.97        500.000        3553.81     
  1987.47        500.000        3554.18     
  1984.96        500.000        3554.55     
  1982.46        500.000        3554.92     
  1979.95        500.000        3555.29     
  1977.44        500.000        3555.66     
  1974.94        500.000        3556.03     
  1972.43        500.000        3556.40     
  1969.92        500.000        3556.77     
  1967.42        500.000        3557.14     
  1964.91        500.000        3557.50     
  1962.41        500.000        3557.87     
  1959.90        500.000        3558.24     
  1957.39        500.000        3558.61     
  1954.89        500.000        3558.98     
  1952.38        500.000        3559.35     
  1949.87        500.000        3559.72     
  1947.37        500.000        3560.08     
  1944.86        500.000        3560.45     
  1942.36        500.000        3560.82     
  1939.85        500.000        3561.19     
  1937.34        500.000        3561.56     
  1934.84        500.000        3561.92     
  1932.33        500.000        3562.29     
  1929.82        500.000        3562.66     
  1927.32        500.000        3563.03     
  1924.81        500.000        3563.39     
  1922.31        500.000        3563.76     
  1919.80        500.000        3564.13     
  1917.29        500.000        3564.49     
  1914.79        500.000        3564.86     
  1912.28        500.000        3565.23     
  1909.77        500.000        3565.59     
  1907.27        500.000        3565.96     
  1904.76        500.000        3566.32     
  1902.26        500.000        3566.69     
  1899.75        500.000        3567.06     
  1897.24        500.000        3567.42     
  1894.74        500.000        3567.79     
  1892.23        500.000        3568.15     
  1889.72        500.000        3568.52     
  1887.22        500.000        3568.88     
  1884.71        500.000        3569.25     
  1882.21        500.000        3569.61     
  1879.70        500.000        3569.98     
  1877.19        500.000        3570.34     
  1874.69        500.000        3570.71     
  1872.18        500.000        3571.07     
  1869.67        500.000        3571.44     
  1867.17        500.000        3571.80     
  1864.66        500.000        3572.16     
  1862.16        500.000        3572.53     
  1859.65        500.000        3572.89     
  1857.14        500.000        3573.25     
  1854.64        500.000        3573.62     
  1852.13        500.000        3573.98     
  1849.62        500.000        3574.35     
  1847.12        500.000        3574.71     
  1844.61        500.000        3575.07     
  1842.11        500.000        3575.43     
  1839.60        500.000        3575.80     
  1837.09        500.000        3576.16     
  1834.59        500.000        3576.52     
  1832.08        500.000        3576.88     
  1829.57        500.000        3577.25     
  1827.07        500.000        3577.61     
  1824.56        500.000        3577.97     
  1822.06        500.000        3578.33     
  1819.55        500.000        3578.70     
  1817.04        500.000        3579.06     
  1814.54        500.000        3579.42     
  1812.03        500.000        3579.78     
  1809.52        500.000        3580.14     
  1807.02        500.000        3580.50     
  1804.51        500.000        3582.39     
  1802.01        500.000        3585.12     
  1799.50        500.000        3590.93     
  1796.99        500.000        3595.70     
  1794.49        500.000        3595.97     
  1791.98        500.000        3596.21     
  1789.47        500.000        3596.49     
  1786.97        500.000        3596.75     
  1784.46        500.000        3597.03     
  1781.95        500.000        3597.27     
  1779.45        500.000        3597.56     
  1776.94        500.000        3597.82     
  1774.44        500.000        3598.04     
  1771.93        500.000        3598.34     
  1769.42        500.000        3598.59     
  1766.92        500.000        3598.86     
  1764.41        500.000        3599.15     
  1761.90        500.000        3566.09     
  1759.40        500.000        3278.24     
  1756.89        500.000        3279.45     
  1754.39        500.000        3281.38     
  1751.88        500.000        3283.10     
  1749.37        500.000        3284.87     
  1746.87        500.000        3287.14     
  1744.36        500.000        3288.29     
  1741.85        500.000        3289.37     
  1739.35        500.000        3291.38     
  1736.84        500.000        3293.56     
  1734.34        500.000        3295.06     
  1731.83        500.000        3297.08     
  1729.32        500.000        3298.49     
  1726.82        500.000        3299.95     
  1724.31        500.000        3301.09     
  1721.80        500.000        3303.53     
  1719.30        500.000        3304.95     
  1716.79        500.000        3306.56     
  1714.29        500.000        3308.15     
  1711.78        500.000        3309.81     
  1709.27        500.000        3311.17     
  1706.77        500.000        3313.47     
  1704.26        500.000        3315.09     
  1701.75        500.000        3318.03     
  1699.25        500.000        3317.80     
  1696.74        500.000        3319.95     
  1694.24        500.000        3321.96     
  1691.73        500.000        3320.83     
  1689.22        500.000        3324.71     
  1686.72        500.000        3325.42     
  1684.21        500.000        3327.60     
  1681.70        500.000        3331.13     
  1679.20        500.000        3330.78     
  1676.69        500.000        3332.08     
  1674.19        500.000        3333.06     
  1671.68        500.000        3335.13     
  1669.17        500.000        3336.03     
  1666.67        500.000        3338.58     
  1664.16        500.000        3339.42     
  1661.65        500.000        3339.93     
  1659.15        500.000        3342.36     
  1656.64        500.000        3344.12     
  1654.14        500.000        3346.90     
  1651.63        500.000        3346.43     
  1649.12        500.000        3347.65     
  1646.62        500.000        3349.42     
  1644.11        500.000        3351.53     
  1641.60        500.000        3352.03     
  1639.10        500.000        3353.96     
  1636.59        500.000        3355.37     
  1634.09        500.000        3357.22     
  1631.58        500.000        3357.25     
  1629.07        500.000        3358.98     
  1626.57        500.000        3360.65     
  1624.06        500.000        3232.89     
  1621.55        500.000        3233.99     
  1619.05        500.000        3235.05     
  1616.54        500.000        3236.23     
  1614.04        500.000        3237.36     
  1611.53        500.000        3238.28     
  1609.02        500.000        3239.52     
  1606.52        500.000        3240.23     
  1604.01        500.000        3241.20     
  1601.50        500.000        3242.77     
  1599.00        500.000        3243.54     
  1596.49        500.000        3245.00     
  1593.98        500.000        3245.92     
  1591.48        500.000        3247.09     
  1588.97        500.000        3247.90     
  1586.47        500.000        3249.72     
  1583.96        500.000        3249.71     
  1581.45        500.000        3251.36     
  1578.95        500.000        3252.88     
  1576.44        500.000        3253.80     
  1573.93        500.000        3255.60     
  1571.43        500.000        3256.12     
  1568.92        500.000        3257.36     
  1566.42        500.000        3260.05     
  1563.91        500.000        3259.92     
  1561.40        500.000        3260.94     
  1558.90        500.000        3262.13     
  1556.39        500.000        3264.04     
  1553.88        500.000        3265.87     
  1551.38        500.000        3266.01     
  1548.87        500.000        3266.11     
  1546.37        500.000        3268.26     
  1543.86        500.000        3269.60     
  1541.35        500.000        3270.63     
  1538.85        500.000        3272.38     
  1536.34        500.000        3264.63     
  1533.83        500.000        3260.04     
  1531.33        500.000        3267.78     
  1528.82        500.000        3271.62     
  1526.32        500.000        3272.54     
  1523.81        500.000        3272.91     
  1521.30        500.000        3265.32     
  1518.80        500.000        3260.74     
  1516.29        500.000        3263.00     
  1513.78        500.000        3265.47     
  1511.28        500.000        3267.74     
  1508.77        500.000        3270.08     
  1506.27        500.000        3272.30     
  1503.76        500.000        3274.65     
  1501.25        500.000        3276.81     
  1498.75        500.000        3279.14     
  1496.24        500.000        3281.36     
  1493.73        500.000        3283.64     
  1491.23        500.000        3285.98     
  1488.72        500.000        3288.26     
  1486.22        500.000        3290.59     
  1483.71        500.000        3292.77     
  1481.20        500.000        3295.45     
  1478.70        500.000        3297.58     
  1476.19        500.000        3300.09     
  1473.68        500.000        3302.18     
  1471.18        500.000        3304.61     
  1468.67        500.000        3306.90     
  1466.17        500.000        3309.31     
  1463.66        500.000        3311.49     
  1461.15        500.000        3313.92     
  1458.65        500.000        3316.35     
  1456.14        500.000        3318.72     
  1453.63        500.000        3321.29     
  1451.13        500.000        3323.70     
  1448.62        500.000        3326.08     
  1446.12        500.000        3328.52     
  1443.61        500.000        3330.80     
  1441.10        500.000        3333.72     
  1438.60        500.000        3335.66     
  1436.09        500.000        3338.56     
  1433.58        500.000        3341.05     
  1431.08        500.000        3343.52     
  1428.57        500.000        3346.16     
  1426.07        500.000        3344.57     
  1423.56        500.000        3353.59     
  1421.05        500.000        3353.80     
  1418.55        500.000        3356.52     
  1416.04        500.000        3358.97     
  1413.53        500.000        3361.92     
  1411.03        500.000        3364.44     
  1408.52        500.000        3366.82     
  1406.02        500.000        3369.62     
  1403.51        500.000        3372.16     
  1401.00        500.000        3374.77     
  1398.50        500.000        3377.95     
  1395.99        500.000        3380.58     
  1393.48        500.000        3175.55     
  1390.98        500.000        3175.35     
  1388.47        500.000        3178.45     
  1385.96        500.000        3181.87     
  1383.46        500.000        3185.37     
  1380.95        500.000        3188.47     
  1378.45        500.000        3191.95     
  1375.94        500.000        3195.37     
  1373.43        500.000        3198.72     
  1370.93        500.000        3202.32     
  1368.42        500.000        3205.89     
  1365.91        500.000        3209.38     
  1363.41        500.000        3212.82     
  1360.90        500.000        3209.17     
  1358.40        500.000        3202.75     
  1355.89        500.000        3211.23     
  1353.38        500.000        3218.89     
  1350.88        500.000        3225.81     
  1348.37        500.000        3271.04     
  1345.86        500.000        3292.22     
  1343.36        500.000        3297.06     
  1340.85        500.000        3301.60     
  1338.35        500.000        3306.81     
  1335.84        500.000        3310.64     
  1333.33        500.000        3314.63     
  1330.83        500.000        3318.88     
  1328.32        500.000        3322.22     
  1325.81        500.000        3350.78     
  1323.31        500.000        3367.63     
  1320.80        500.000        3373.96     
  1318.30        500.000        3379.71     
  1315.79        500.000        3384.74     
  1313.28        500.000        3388.79     
  1310.78        500.000        3392.35     
  1308.27        500.000        3394.78     
  1305.76        500.000        3393.84     
  1303.26        500.000        3387.65     
  1300.75        500.000        3381.94     
  1298.25        500.000        3383.54     
  1295.74        500.000        3384.87     
  1293.23        500.000        3389.47     
  1290.73        500.000        3391.54     
  1288.22        500.000        3394.41     
  1285.71        500.000        3396.75     
  1283.21        500.000        3397.58     
  1280.70        500.000        3518.20     
  1278.20        500.000        3379.12     
  1275.69        500.000        3371.15     
  1273.18        500.000        3384.22     
  1270.68        500.000        3397.18     
  1268.17        500.000        3390.20     
  1265.66        500.000        3363.56     
  1263.16        500.000        3385.27     
  1260.65        500.000        3385.22     
  1258.15        500.000        3357.90     
  1255.64        500.000        3360.31     
  1253.13        500.000        3361.73     
  1250.63        500.000        3363.36     
  1248.12        500.000        3364.51     
  1245.61        500.000        3366.44     
  1243.11        500.000        3367.51     
  1240.60        500.000        2882.98     
  1238.10        500.000        2873.63     
  1235.59        500.000        2874.63     
  1233.08        500.000        2874.94     
  1230.58        500.000        2875.54     
  1228.07        500.000        2876.01     
  1225.56        500.000        2875.32     
  1223.06        500.000        2875.77     
  1220.55        500.000        2874.56     
  1218.05        500.000        2692.66     
  1215.54        500.000        2691.86     
  1213.03        500.000        2691.19     
  1210.53        500.000        2688.60     
  1208.02        500.000        2689.28     
  1205.51        500.000        2685.20     
  1203.01        500.000        2682.27     
  1200.50        500.000        2661.68     
  1197.99        500.000        2677.78     
  1195.49        500.000        2682.75     
  1192.98        500.000        2661.16     
  1190.48        500.000        2637.26     
  1187.97        500.000        2628.29     
  1185.46        500.000        2629.01     
  1182.96        500.000        2628.52     
  1180.45        500.000        2628.60     
  1177.94        500.000        2628.70     
  1175.44        500.000        2628.80     
  1172.93        500.000        2628.90     
  1170.43        500.000        2629.00     
  1167.92        500.000        2629.10     
  1165.41        500.000        2629.20     
  1162.91        500.000        2629.30     
  1160.40        500.000        2629.40     
  1157.89        500.000        2629.50     
  1155.39        500.000        2629.60     
  1152.88        500.000        2630.49     
  1150.38        500.000        2630.42     
  1147.87        500.000        2632.76     
  1145.36        500.000        2632.81     
  1142.86        500.000        2632.87     
  1140.35        500.000        2632.93     
  1137.84        500.000        2632.98     
  1135.34        500.000        2633.18     
  1132.83        500.000        2630.65     
  1130.33        500.000        2635.74     
  1127.82        500.000        2633.19     
  1125.31        500.000        2633.24     
  1122.81        500.000        2633.31     
  1120.30        500.000        2633.37     
  1117.79        500.000        2631.20     
  1115.29        500.000        2631.31     
  1112.78        500.000        2633.57     
  1110.28        500.000        2631.40     
  1107.77        500.000        2631.51     
  1105.26        500.000        2631.61     
  1102.76        500.000        2631.70     
  1100.25        500.000        2631.79     
  1097.74        500.000        2632.19     
  1095.24        500.000        2631.99     
  1092.73        500.000        2632.09     
  1090.23        500.000        2632.20     
  1087.72        500.000        2632.30     
  1085.21        500.000        2632.40     
  1082.71        500.000        2632.50     
  1080.20        500.000        2632.60     
  1077.69        500.000        2632.70     
  1075.19        500.000        2632.80     
  1072.68        500.000        2632.89     
  1070.18        500.000        2635.74     
  1067.67        500.000        2633.09     
  1065.16        500.000        2635.03     
  1062.66        500.000        2635.84     
  1060.15        500.000        2635.30     
  1057.64        500.000        2635.24     
  1055.14        500.000        2635.32     
  1052.63        500.000        2633.68     
  1050.13        500.000        2633.77     
  1047.62        500.000        2635.61     
  1045.11        500.000        2633.97     
  1042.61        500.000        2634.05     
  1040.10        500.000        2634.16     
  1037.59        500.000        2634.29     
  1035.09        500.000        2634.35     
  1032.58        500.000        2634.71     
  1030.08        500.000        2636.24     
  1027.57        500.000        2634.66     
  1025.06        500.000        2634.75     
  1022.56        500.000        2634.87     
  1020.05        500.000        2635.10     
  1017.54        500.000        2635.17     
  1015.04        500.000        2635.33     
  1012.53        500.000        2635.27     
  1010.03        500.000        2635.36     
  1007.52        500.000        2635.55     
  1005.01        500.000        2635.72     
  1002.51        500.000        2635.65     
  1000.00        500.000        2635.75     
