|6.6.6
Archiving\03_Data\fracLP/QFM_m4/ALH/ALH_6.tab                             
           1
T(K)    
  0.000000000000000E+000
  0.000000000000000E+000
           0
           3
T(K)           P(bar)         rho,kg/m3     
  2000.00        500.000        4954.13     
  1997.49        500.000        4954.84     
  1994.99        500.000        4955.56     
  1992.48        500.000        4956.28     
  1989.97        500.000        4957.00     
  1987.47        500.000        4957.71     
  1984.96        500.000        4958.43     
  1982.46        500.000        4959.14     
  1979.95        500.000        4959.86     
  1977.44        500.000        4960.57     
  1974.94        500.000        4961.28     
  1972.43        500.000        4962.00     
  1969.92        500.000        4962.71     
  1967.42        500.000        4963.42     
  1964.91        500.000        4964.14     
  1962.41        500.000        4964.85     
  1959.90        500.000        4965.56     
  1957.39        500.000        4966.27     
  1954.89        500.000        4966.98     
  1952.38        500.000        4967.69     
  1949.87        500.000        4968.40     
  1947.37        500.000        4969.11     
  1944.86        500.000        4969.82     
  1942.36        500.000        4970.53     
  1939.85        500.000        4971.24     
  1937.34        500.000        4971.95     
  1934.84        500.000        4972.65     
  1932.33        500.000        4973.36     
  1929.82        500.000        4974.07     
  1927.32        500.000        4974.77     
  1924.81        500.000        4975.48     
  1922.31        500.000        4976.19     
  1919.80        500.000        4976.89     
  1917.29        500.000        4977.60     
  1914.79        500.000        4978.30     
  1912.28        500.000        4979.01     
  1909.77        500.000        4979.71     
  1907.27        500.000        4980.41     
  1904.76        500.000        4981.12     
  1902.26        500.000        4981.82     
  1899.75        500.000        4982.52     
  1897.24        500.000        4983.22     
  1894.74        500.000        4983.92     
  1892.23        500.000        4984.63     
  1889.72        500.000        4371.96     
  1887.22        500.000        3190.34     
  1884.71        500.000        3192.71     
  1882.21        500.000        3194.16     
  1879.70        500.000        3196.25     
  1877.19        500.000        3198.12     
  1874.69        500.000        3199.88     
  1872.18        500.000        3201.57     
  1869.67        500.000        3203.50     
  1867.17        500.000        3205.10     
  1864.66        500.000        3206.87     
  1862.16        500.000        3210.08     
  1859.65        500.000        3211.46     
  1857.14        500.000        3212.99     
  1854.64        500.000        3217.32     
  1852.13        500.000        3217.81     
  1849.62        500.000        3219.18     
  1847.12        500.000        3221.63     
  1844.61        500.000        3223.51     
  1842.11        500.000        3225.26     
  1839.60        500.000        3227.95     
  1837.09        500.000        3229.70     
  1834.59        500.000        3232.03     
  1832.08        500.000        3233.75     
  1829.57        500.000        3235.80     
  1827.07        500.000        3238.10     
  1824.56        500.000        3239.72     
  1822.06        500.000        3241.82     
  1819.55        500.000        3243.69     
  1817.04        500.000        3246.03     
  1814.54        500.000        3250.03     
  1812.03        500.000        3264.96     
  1809.52        500.000        3272.27     
  1807.02        500.000        3274.75     
  1804.51        500.000        3278.07     
  1802.01        500.000        3278.95     
  1799.50        500.000        3281.21     
  1796.99        500.000        3283.25     
  1794.49        500.000        3285.59     
  1791.98        500.000        3287.95     
  1789.47        500.000        3290.24     
  1786.97        500.000        3291.81     
  1784.46        500.000        3294.08     
  1781.95        500.000        3296.38     
  1779.45        500.000        3298.32     
  1776.94        500.000        3301.69     
  1774.44        500.000        3303.55     
  1771.93        500.000        3304.99     
  1769.42        500.000        3306.75     
  1766.92        500.000        3308.60     
  1764.41        500.000        3311.58     
  1761.90        500.000        3313.46     
  1759.40        500.000        3316.45     
  1756.89        500.000        3317.62     
  1754.39        500.000        3320.21     
  1751.88        500.000        3322.45     
  1749.37        500.000        3324.78     
  1746.87        500.000        3326.81     
  1744.36        500.000        3329.08     
  1741.85        500.000        3327.49     
  1739.35        500.000        3337.65     
  1736.84        500.000        3336.80     
  1734.34        500.000        3338.05     
  1731.83        500.000        3339.01     
  1729.32        500.000        3342.11     
  1726.82        500.000        3344.06     
  1724.31        500.000        3347.15     
  1721.80        500.000        3348.62     
  1719.30        500.000        3351.23     
  1716.79        500.000        3353.71     
  1714.29        500.000        3363.59     
  1711.78        500.000        4293.46     
  1709.27        500.000        3360.02     
  1706.77        500.000        3362.71     
  1704.26        500.000        3365.13     
  1701.75        500.000        3367.35     
  1699.25        500.000        3369.20     
  1696.74        500.000        3371.69     
  1694.24        500.000        3374.77     
  1691.73        500.000        3376.25     
  1689.22        500.000        3378.69     
  1686.72        500.000        3380.53     
  1684.21        500.000        3382.93     
  1681.70        500.000        3385.05     
  1679.20        500.000        3387.42     
  1676.69        500.000        3390.29     
  1674.19        500.000        3392.11     
  1671.68        500.000        3394.28     
  1669.17        500.000        3396.00     
  1666.67        500.000        3398.08     
  1664.16        500.000        3404.09     
  1661.65        500.000        3402.79     
  1659.15        500.000        3403.89     
  1656.64        500.000        3399.95     
  1654.14        500.000        3410.02     
  1651.63        500.000        3412.32     
  1649.12        500.000        3415.68     
  1646.62        500.000        3416.50     
  1644.11        500.000        3419.02     
  1641.60        500.000        3420.62     
  1639.10        500.000        3423.24     
  1636.59        500.000        3424.85     
  1634.09        500.000        3426.78     
  1631.58        500.000        3429.70     
  1629.07        500.000        3432.12     
  1626.57        500.000        3434.18     
  1624.06        500.000        3436.73     
  1621.55        500.000        3438.03     
  1619.05        500.000        3440.57     
  1616.54        500.000        3443.09     
  1614.04        500.000        3445.15     
  1611.53        500.000        3446.13     
  1609.02        500.000        3449.93     
  1606.52        500.000        3451.49     
  1604.01        500.000        3453.98     
  1601.50        500.000        3455.74     
  1599.00        500.000        3457.85     
  1596.49        500.000        3460.76     
  1593.98        500.000        3462.45     
  1591.48        500.000        3463.34     
  1588.97        500.000        3466.69     
  1586.47        500.000        3469.09     
  1583.96        500.000        3474.51     
  1581.45        500.000        3477.35     
  1578.95        500.000        4523.17     
  1576.44        500.000        3462.65     
  1573.93        500.000        3477.43     
  1571.43        500.000        3480.98     
  1568.92        500.000        3483.80     
  1566.42        500.000        3484.55     
  1563.91        500.000        3487.88     
  1561.40        500.000        3489.40     
  1558.90        500.000        3491.90     
  1556.39        500.000        3494.94     
  1553.88        500.000        3495.93     
  1551.38        500.000        3496.95     
  1548.87        500.000        3499.68     
  1546.37        500.000        3501.58     
  1543.86        500.000        3504.29     
  1541.35        500.000        3505.48     
  1538.85        500.000        3509.29     
  1536.34        500.000        3510.88     
  1533.83        500.000        3512.81     
  1531.33        500.000        3516.67     
  1528.82        500.000        3515.88     
  1526.32        500.000        3518.74     
  1523.81        500.000        3521.16     
  1521.30        500.000        3523.88     
  1518.80        500.000        3525.25     
  1516.29        500.000        3527.21     
  1513.78        500.000        3417.17     
  1511.28        500.000        3333.21     
  1508.77        500.000        3335.41     
  1506.27        500.000        3335.22     
  1503.76        500.000        3336.01     
  1501.25        500.000        3337.93     
  1498.75        500.000        3353.16     
  1496.24        500.000        3320.41     
  1493.73        500.000        3322.10     
  1491.23        500.000        3324.03     
  1488.72        500.000        3325.12     
  1486.22        500.000        3327.64     
  1483.71        500.000        3328.74     
  1481.20        500.000        3336.89     
  1478.70        500.000        3339.84     
  1476.19        500.000        3341.95     
  1473.68        500.000        3343.15     
  1471.18        500.000        3345.02     
  1468.67        500.000        3346.57     
  1466.17        500.000        3348.07     
  1463.66        500.000        3349.62     
  1461.15        500.000        3351.46     
  1458.65        500.000        3352.63     
  1456.14        500.000        3353.47     
  1453.63        500.000        3354.92     
  1451.13        500.000        3356.65     
  1448.62        500.000        3356.88     
  1446.12        500.000        3357.82     
  1443.61        500.000        3326.52     
  1441.10        500.000        3326.48     
  1438.60        500.000        3328.86     
  1436.09        500.000        3331.11     
  1433.58        500.000        3333.82     
  1431.08        500.000        3336.11     
  1428.57        500.000        3338.75     
  1426.07        500.000        3341.13     
  1423.56        500.000        3343.65     
  1421.05        500.000        3346.26     
  1418.55        500.000        3348.70     
  1416.04        500.000        3351.29     
  1413.53        500.000        3353.85     
  1411.03        500.000        3356.27     
  1408.52        500.000        3359.14     
  1406.02        500.000        3361.71     
  1403.51        500.000        3364.58     
  1401.00        500.000        3366.90     
  1398.50        500.000        3280.39     
  1395.99        500.000        3168.41     
  1393.48        500.000        3171.67     
  1390.98        500.000        3175.03     
  1388.47        500.000        3178.43     
  1385.96        500.000        3181.29     
  1383.46        500.000        3185.21     
  1380.95        500.000        3188.22     
  1378.45        500.000        3191.47     
  1375.94        500.000        3194.90     
  1373.43        500.000        3198.32     
  1370.93        500.000        3201.65     
  1368.42        500.000        3205.02     
  1365.91        500.000        3208.43     
  1363.41        500.000        3211.89     
  1360.90        500.000        3215.25     
  1358.40        500.000        3218.62     
  1355.89        500.000        3222.21     
  1353.38        500.000        3225.66     
  1350.88        500.000        3221.69     
  1348.37        500.000        3226.83     
  1345.86        500.000        3232.71     
  1343.36        500.000        3284.67     
  1340.85        500.000        3294.98     
  1338.35        500.000        3300.15     
  1335.84        500.000        3304.45     
  1333.33        500.000        3308.35     
  1330.83        500.000        3312.18     
  1328.32        500.000        3325.68     
  1325.81        500.000        3360.27     
  1323.31        500.000        3362.30     
  1320.80        500.000        3361.66     
  1318.30        500.000        3366.23     
  1315.79        500.000        3366.94     
  1313.28        500.000        3368.09     
  1310.78        500.000        3368.82     
  1308.27        500.000        3369.89     
  1305.76        500.000        3370.51     
  1303.26        500.000        3370.77     
  1300.75        500.000        3371.36     
  1298.25        500.000        3371.69     
  1295.74        500.000        3371.57     
  1293.23        500.000        3371.24     
  1290.73        500.000        3370.22     
  1288.22        500.000        3369.59     
  1285.71        500.000        3367.70     
  1283.21        500.000        3364.99     
  1280.70        500.000        3360.74     
  1278.20        500.000        3354.38     
  1275.69        500.000        3333.60     
  1273.18        500.000        3328.39     
  1270.68        500.000        3324.89     
  1268.17        500.000        3325.53     
  1265.66        500.000        3326.85     
  1263.16        500.000        2974.00     
  1260.65        500.000        2850.87     
  1258.15        500.000        2853.39     
  1255.64        500.000        2855.02     
  1253.13        500.000        2857.19     
  1250.63        500.000        2858.98     
  1248.12        500.000        2860.64     
  1245.61        500.000        2861.92     
  1243.11        500.000        2862.41     
  1240.60        500.000        2864.23     
  1238.10        500.000        2865.24     
  1235.59        500.000        2865.92     
  1233.08        500.000        2866.00     
  1230.58        500.000        2866.96     
  1228.07        500.000        2867.13     
  1225.56        500.000        2867.48     
  1223.06        500.000        2867.19     
  1220.55        500.000        2866.18     
  1218.05        500.000        2865.61     
  1215.54        500.000        2700.53     
  1213.03        500.000        2684.63     
  1210.53        500.000        2684.52     
  1208.02        500.000        2683.34     
  1205.51        500.000        2681.27     
  1203.01        500.000        2676.88     
  1200.50        500.000        2671.82     
  1197.99        500.000        2671.87     
  1195.49        500.000        2653.14     
  1192.98        500.000        2662.26     
  1190.48        500.000        2629.36     
  1187.97        500.000        2629.52     
  1185.46        500.000        2629.61     
  1182.96        500.000        2629.73     
  1180.45        500.000        2629.82     
  1177.94        500.000        2629.89     
  1175.44        500.000        2630.05     
  1172.93        500.000        2630.14     
  1170.43        500.000        2630.24     
  1167.92        500.000        2630.37     
  1165.41        500.000        2630.47     
  1162.91        500.000        2630.58     
  1160.40        500.000        2630.70     
  1157.89        500.000        2630.80     
  1155.39        500.000        2630.91     
  1152.88        500.000        2631.02     
  1150.38        500.000        2631.13     
  1147.87        500.000        2631.25     
  1145.36        500.000        2631.36     
  1142.86        500.000        2631.47     
  1140.35        500.000        2631.58     
  1137.84        500.000        2631.69     
  1135.34        500.000        2631.80     
  1132.83        500.000        2631.91     
  1130.33        500.000        2632.02     
  1127.82        500.000        2632.13     
  1125.31        500.000        2632.24     
  1122.81        500.000        2632.35     
  1120.30        500.000        2632.46     
  1117.79        500.000        2632.57     
  1115.29        500.000        2632.67     
  1112.78        500.000        2632.78     
  1110.28        500.000        2633.05     
  1107.77        500.000        2633.16     
  1105.26        500.000        2633.27     
  1102.76        500.000        2633.38     
  1100.25        500.000        2633.49     
  1097.74        500.000        2633.60     
  1095.24        500.000        2633.71     
  1092.73        500.000        2633.82     
  1090.23        500.000        2633.93     
  1087.72        500.000        2633.87     
  1085.21        500.000        2634.15     
  1082.71        500.000        2634.26     
  1080.20        500.000        2634.37     
  1077.69        500.000        2634.32     
  1075.19        500.000        2634.45     
  1072.68        500.000        2634.55     
  1070.18        500.000        2634.66     
  1067.67        500.000        2634.75     
  1065.16        500.000        2634.86     
  1062.66        500.000        2634.99     
  1060.15        500.000        2635.05     
  1057.64        500.000        2635.16     
  1055.14        500.000        2633.74     
  1052.63        500.000        2633.46     
  1050.13        500.000        2633.55     
  1047.62        500.000        2633.60     
  1045.11        500.000        2633.07     
  1042.61        500.000        2633.18     
  1040.10        500.000        2633.28     
  1037.59        500.000        2633.39     
  1035.09        500.000        2633.50     
  1032.58        500.000        2633.60     
  1030.08        500.000        2633.71     
  1027.57        500.000        2633.82     
  1025.06        500.000        2633.93     
  1022.56        500.000        2634.03     
  1020.05        500.000        2634.14     
  1017.54        500.000        2634.25     
  1015.04        500.000        2634.35     
  1012.53        500.000        2634.46     
  1010.03        500.000        2634.24     
  1007.52        500.000        2634.32     
  1005.01        500.000        2634.39     
  1002.51        500.000        2634.47     
  1000.00        500.000        2634.55     
